time,seconds_elapsed,rotationRateX,rotationRateY,rotationRateZ,gravityX,gravityY,gravityZ,accelerationX,accelerationY,accelerationZ,quaternionW,quaternionX,quaternionY,quaternionZ
1710359161677014500,0.041014648,-0.025778022,0.006037828,0.015880873426795006,-0.438426137,0.8866773247718811,0.14692126214504242,-0.004704356,-0.012028277,0.007619619,0.5854418834441296,-0.757271833,-5.49E-18,-0.289477374
1710359161687033600,0.051033691,-0.002316903,0.003635764,0.02403068,-0.438638896,0.8865007758140564,0.14735069870948792,0.002695322,0.002110004,-0.000240818,0.5852306608243645,-0.757413592,-3.89085E-05,-0.289533587
1710359161697052400,0.06105249,0.026756027713418007,0.008967945,0.024533484131097794,-0.43885234,0.8863895535469055,0.14738357067108154,-0.001226336,0.009408057,-0.005095497,0.5851736597687247,-0.757424435,-0.000103809,-0.289620209
1710359161707071500,0.071071533,0.027084395,0.00306851,0.024661848321557045,-0.438530624,0.8865827322006226,0.14717969298362732,-0.008902788,0.003660738,-0.004113451,0.5853102332565732,-0.757357146,8.57154E-06,-0.289520389
1710359161717089500,0.0810896,0.018919143825769424,-0.000317432,0.025747353211045265,-0.438086778,0.8868485689163208,0.14689981937408447,-0.008080184,-0.004219174,-0.003604531,0.5855016195126794,-0.757264742,0.000153938,-0.289375053
1710359161727108900,0.091108887,0.002858952,0.001300011,0.024891680106520653,-0.437824994,0.8870080709457397,0.14671693742275238,-0.004496723,-0.01226753,-0.003528491,0.5856169417697428,-0.757204338,0.00025009,-0.289299659
1710359161737130500,0.101130615,0.001759065,-0.000355409,0.023564625531435013,-0.437684566,0.8870754241943359,0.14672906696796417,-0.001188725,-0.014867783,-0.003113389,0.5857538446043685,-0.757208382,-2.65E-17,-0.289011971
1710359161747149600,0.111149658,0.00870166,0.000602423,0.020355783,-0.437671155,0.8870698809623718,0.14680348336696625,-0.000652879,-0.011566162,-0.006483659,0.5857284372048812,-0.757232949,7.15102E-06,-0.288999273
1710359161757167600,0.121167725,0.00712427,0.010200722143054008,0.020148856565356255,-0.437594324,0.8871071338653564,0.14680662751197815,-0.001828313,-0.009879351,-0.005449295,0.5857356862875795,-0.757233985,5.05654E-05,-0.288981717
1710359161767186400,0.131186523,0.012701195664703846,0.00680876,0.010238433256745338,-0.437432826,0.8872037529945374,0.14670339226722717,0.001275659,-0.008541763,-0.001104012,0.5857932481152301,-0.757199895,0.000136003,-0.288954195
1710359161777205500,0.141205566,0.017472781240940094,0.005528579,0.009023767,-0.437349945,0.887291431,0.14641977846622467,0.004015654,-0.007423997,-0.000881448,0.5859104887809949,-0.757106239,0.000170407,-0.288961849
1710359161787223600,0.151223633,0.005247807,0.006263825,0.009838959,-0.437416732,0.887291431,0.14622017741203308,0.008217573,-0.009346604,0.00389573,0.5859655358107836,-0.757040329,0.000159723,-0.289022851
1710359161797242400,0.161242432,0.00458175,0.003579092,0.00471344,-0.437537789,0.8872503638267517,0.14610812067985535,0.010261178016662598,-0.00977844,0.005503178,0.5859785580987816,-0.757003329,0.000129609,-0.28909363
1710359161807261400,0.171261475,-0.012915751,0.007412818,0.00219622,-0.437687367,0.8871800303459167,0.14608758687973022,0.007526785,-0.01269871,0.003936782,0.5859488117990742,-0.756996553,9.9574E-05,-0.289171762
1710359161817280500,0.181280518,-0.025887743,0.007405894,0.004256708,-0.437804431,0.8870969414710999,0.14624129235744476,0.005645007,-0.012585163,0.004546046,0.5858474980023781,-0.757047313,0.000118183,-0.289244086
1710359161827298300,0.19129834,-0.011839035,0.003533446,0.00164468,-0.437872857,0.8870522379875183,0.14630697667598724,0.003714561,-0.009305656,0.006998047,0.5857912095405061,-0.757068999,0.000144312,-0.289301203
1710359161837317400,0.201317383,-0.011343953,0.003654087,0.002976793,-0.437955409,0.8870086669921875,0.14632461965084076,0.001599789,-0.00769037,0.008933544,0.585757291,-0.757074822,0.000145932,-0.289354731
1710359161847336400,0.211336426,-0.014077954,0.002364477,0.004353647,-0.437954754,0.8869909644126892,0.14643466472625732,0.00214839,-0.003003359,0.008670941,0.5857047875014815,-0.757111155,0.00017917,-0.289366118
1710359161857354500,0.221354492,-0.019149411,-0.002676355,0.005486822,-0.437892914,0.8869963884353638,0.14658550918102264,0.002132416,-0.002764821,0.006811023,0.5856511318704765,-0.75716095,0.000228242,-0.289344205
1710359161867373600,0.231373535,-0.028990058,-0.003363076,0.006359274,-0.437776655,0.8870018124580383,0.1468995362520218,-0.001432329,-0.005898297,0.004513383,0.5855503546009824,-0.757264606,0.000291581,-0.289276775
1710359161877392600,0.241392578,-0.043745838,-0.004369218,0.007051962,-0.437618583,0.8870055675506592,0.1473482847213745,-0.005008429,-0.00808388,0.005773678,0.5853995051760027,-0.757412694,0.000393375,-0.28919449
1710359161887411500,0.251411377,-0.03915428,-0.006526272,0.003389849,-0.437540382,0.8869636654853821,0.14783123135566711,-0.005498588,-0.003662825,0.005717993,0.5852207277414193,-0.75757204,0.000466798,-0.289138668
1710359161897429500,0.261429443,-0.036151297,-0.00408735,0.00276587,-0.43751207,0.8869041800498962,0.14827151596546173,-0.003863722,0.002439201,0.000684753,0.5850529707600958,-0.757717293,0.000509659,-0.289097553
1710359161907448600,0.271448486,-0.034625839,-0.00296536,0.00959901,-0.437460661,0.8868548274040222,0.1487177610397339,-0.002282441,0.007584989,0.001718655,0.584884036,-0.757864471,0.000569392,-0.289053479
1710359161917467400,0.281467285,-0.029420691,-0.00148411,0.008847199,-0.437404394,0.8868112564086914,0.14914155006408691,-8.03769E-05,0.002791405,-0.001558542,0.5847252116435603,-0.758004207,0.000627913,-0.289008094
1710359161927486500,0.291486572,-0.03433742,-0.001266796,0.005188016,-0.437328011,0.8867847919464111,0.14952334761619568,0.000239938,-0.006535649,-0.005755052,0.5845855168529134,-0.758130061,0.00069404,-0.288960622
1710359161937504500,0.301504395,-0.039118063,0.000559067,0.006303614,-0.437269926,0.8867457509040833,0.14992418885231018,0.002073944,-0.009792507,-0.007696971,0.5844290204327586,-0.758262158,0.000769971,-0.288930365
1710359161947523300,0.311523438,-0.03130994,0.004180966,0.009096738,-0.437266231,0.8866907954216003,0.15025854110717773,0.005167842,-0.008181334,-0.012288585,0.584283957,-0.758372323,0.000832768,-0.288934182
1710359161957542400,0.32154248,-0.024209151,0.007217503,0.009665588,-0.437311262,0.8866206407546997,0.1505405306816101,0.006555706,-0.003487885,-0.012158662,0.5841473473506417,-0.75846522,0.000882056,-0.288966285
1710359161967560400,0.331560547,-0.025968703,0.008160476,0.008889277,-0.437336534,0.8865682482719421,0.1507759839296341,0.005375504,-0.001222849,-0.008625165,0.5840320765566139,-0.758542759,0.000937119,-0.288995678
1710359161977579300,0.341579346,-0.025763107,0.00856421,0.008637609,-0.437296987,0.886560857,0.1509343534708023,0.00391686,-0.000132024,-0.004572168,0.5839541971524683,-0.758594837,0.00102342,-0.289016097
1710359161987598300,0.351598389,-0.019769929,0.015754584223031998,0.005221838,-0.437236726,0.8865699172019958,0.15105605125427246,0.001964509,-0.000293612,-0.001138568,0.583889969,-0.758634799,0.001126844,-0.289040686
1710359161997617400,0.361617432,-0.01295703,0.017836909741163254,0.008077545,-0.437192768,0.8865882754325867,0.15107518434524536,0.000730395,-0.000861347,-0.002836123,0.5838570739623827,-0.758640936,0.001232305,-0.289090484
1710359162007635500,0.371635498,-0.01039427,0.015496950596570969,0.011350836604833603,-0.437168688,0.8866127729415894,0.15100041031837463,0.002506882,-0.002167702,-0.002822295,0.5838581843192565,-0.758616147,0.001321627,-0.289152811
1710359162017654500,0.381654541,-0.01527904,0.013316354714334011,0.004674025,-0.437154561,0.8866280317306519,0.15095293521881104,0.00055477,-0.004654646,-0.003186926,0.5838501260395924,-0.758600361,0.001400743,-0.289210395
1710359162027673600,0.391673584,-0.025118088,0.015667179599404335,-0.000948973,-0.43715322,0.8866401314735413,0.15088608860969543,-0.003413856,-0.008023679,-0.001319394,0.5838427007687474,-0.75857817,0.001485534,-0.289283209
1710359162037692700,0.401692627,-0.029754652,0.011690014973282814,-0.001320484,-0.437130362,0.8866482377052307,0.1509038507938385,-0.007419229,-0.003973067,0.000570059,0.5838041497386347,-0.758583812,0.00158893,-0.289345486
1710359162047710500,0.411710449,-0.01894355,0.00855132,-0.000446967,-0.437104434,0.8866530060768127,0.15095193684101105,-0.007582515,0.002354741,-0.002651796,0.5837631933267022,-0.758599482,0.001672632,-0.289386754
1710359162057729500,0.421729492,-0.004620537,0.007543047,-0.004009211,-0.437085718,0.8866603970527649,0.15096227824687958,-0.006151587,0.002377748,-0.005973339,0.583745523,-0.75860277,0.001724951,-0.289413378
1710359162067748600,0.431748535,-0.006849603,0.006853555,-0.006660654,-0.437128603,0.8866396546363831,0.15095938742160797,-0.007314146,-0.001858771,-0.005680561,0.5837279895937916,-0.758601793,0.001736844,-0.289451136
1710359162077766400,0.441766357,-0.018865786,0.007115344,-0.008600768,-0.4372091,0.8865911364555359,0.15101158618927002,-0.005387336,-0.005441785,-0.002360463,0.583677472,-0.758618963,0.001750445,-0.289507982
1710359162087785500,0.4517854,-0.013648387,0.009650567,-0.008681461,-0.437288016,0.8865397572517395,0.15108440816402435,-0.001096994,-0.00835067,-7.16746E-06,0.5836180181159527,-0.758642917,0.001768861,-0.289564878
1710359162097804500,0.461804443,-0.022494875,0.010768827982246876,-0.01085034,-0.437413961,0.8864643573760986,0.1511625349521637,0.004277974,-0.010411501,0.001410127,0.5835438249945578,-0.758668632,0.001780744,-0.289647042
1710359162107823400,0.471823242,-0.019748889,0.010058509185910225,-0.012562752,-0.437618136,0.8863393068313599,0.15130451321601868,0.006404728,-0.006197095,1.69277E-05,0.5834309101760846,-0.758715453,0.001765673,-0.289751858
1710359162117841400,0.481841309,-0.027554348,0.014494536444544792,-0.010841018,-0.437836856,0.8862050175666809,0.15145954489707947,0.006852299,-0.007130742,0.001219884,0.5833058399800912,-0.758766551,0.001757849,-0.289870176
1710359162127860500,0.491860596,-0.021746527,0.013332705944776535,-0.013093786,-0.438028812,0.8860913515090942,0.15156954526901245,0.007288367,-0.006956041,0.001155749,0.5831994246542459,-0.758802777,0.001766684,-0.289989358
1710359162137879300,0.501879395,-0.0221713,0.015300248749554157,-0.013392594,-0.438216537,0.8859948515892029,0.15158981084823608,0.0068506,-0.009575784,-0.001855269,0.5831287881556619,-0.75880944,0.001770977,-0.290113656
1710359162147897600,0.511897705,-0.029161565,0.018131082877516747,-0.013702318,-0.438439906,0.8858731389045715,0.15165627002716064,0.005059719,-0.008446813,-0.000838384,0.5830280417045405,-0.758831318,0.001779855,-0.290259049
1710359162157916700,0.521916748,-0.029663306,0.01652493,-0.013095917,-0.438657075,0.8857411742210388,0.15179796516895294,0.002591401,-0.006224573,0.00193429,0.5828979992099892,-0.758877952,0.001798088,-0.290398009
1710359162167935500,0.531935547,-0.037884217,0.015316654928028584,-0.009908913,-0.438821644,0.8856191635131836,0.15203528106212616,-0.000311136,-0.002684414,0.000705257,0.5827443021639152,-0.758956051,0.001832216,-0.290502369
1710359162177954600,0.54195459,-0.034218643,0.016800303012132645,-0.003987373,-0.438893825,0.8855338096618652,0.15232285857200623,-0.004343539,0.001322389,0.004690066,0.5825837548722188,-0.759050564,0.001914754,-0.290576721
1710359162187972600,0.551972656,-0.03315977,0.012981914915144444,-0.002844611,-0.438895702,0.8854930400848389,0.15255457162857056,-0.006660998,-0.000437379,0.001040474,0.5824614536939063,-0.75912663,0.002011268,-0.290622581
1710359162197991400,0.561991455,-0.03109795,0.011841016821563244,-0.003780446,-0.438892901,0.885451078,0.15280656516551971,-0.004909039,-0.003935397,-0.003484115,0.5823365784924405,-0.759209374,0.002099182,-0.290656166
1710359162208010500,0.572010498,-0.027541032,0.012463291175663471,-0.003388695,-0.438888252,0.8854154944419861,0.15302589535713196,-0.001907736,-0.00644803,-0.003047332,0.5822246964124207,-0.759281352,0.002185749,-0.290691612
1710359162218029600,0.582029541,-0.041306645,0.010262188501656055,-0.004884326,-0.438906789,0.8853682279586792,0.15324562788009644,-0.003323525,-0.007102728,0.007398978,0.5821079611801132,-0.759353464,0.00226469,-0.290736392
1710359162228047400,0.592047363,-0.046705674,0.010183891281485558,-0.004034778,-0.43894735,0.8852864503860474,0.15360115468502045,-0.008684546,-0.003038406,0.007852092,0.581930435,-0.759470236,0.002353575,-0.290785982
1710359162238066400,0.602066406,-0.035153147,0.014182361774146557,-0.004228123,-0.439015239,0.8851985931396484,0.15391279757022858,-0.01398766,-0.003271103,0.005617842,0.5817652835320609,-0.759572578,0.002428521,-0.290848377
1710359162248085500,0.612085449,-0.028848913,0.014910416,-0.003820659,-0.43909505,0.8851221799850464,0.15412573516368866,-0.011359811,-0.000981927,0.002398998,0.5816352790469771,-0.759642437,0.00249636,-0.290925682
1710359162258103300,0.622103271,-0.020120401,0.013236352242529392,-0.004041702,-0.439183414,0.8850468397140503,0.1543058604001999,-0.004847378,-6.49691E-06,-0.002923489,0.581522252,-0.759701563,0.00254315,-0.290996635
1710359162268122400,0.632122314,-0.022663984,0.014709773,-0.010862591,-0.439339787,0.88494873,0.1544235348701477,0.002190679,-0.008758366,-0.001835689,0.5814204341022439,-0.759740222,0.002562265,-0.291099046
1710359162278141400,0.642141357,-0.035025582,0.012868464,-0.012535587,-0.439539135,0.8848260641098022,0.15455888211727142,0.00953114,-0.014846087,0.001401082,0.5813000960476701,-0.759784711,0.002575709,-0.291223063
1710359162288160500,0.6521604,-0.034687892,0.011875743046402931,-0.01062184,-0.439702511,0.8847067356109619,0.15477626025676727,0.010762661695480347,-0.012346506,0.001931548,0.5811561241093737,-0.75985614,0.002603026,-0.291323586
1710359162298178600,0.662178467,-0.026272036,0.014730652,-0.008187445,-0.439862698,0.8845740556716919,0.1550794392824173,0.007428616,-0.003027976,0.001414657,0.5809834055526044,-0.759955803,0.002626233,-0.291407931
1710359162308197400,0.672197266,-0.017821027,0.014952654018998146,-0.007872127,-0.440044731,0.8844446539878845,0.15529991686344147,0.000118643,0.005249441,0.000125989,0.5808391307513213,-0.760028298,0.002635162,-0.291506214
1710359162318216400,0.682216553,-0.018877769,0.018598521128296852,-0.011852752,-0.440310806,0.8842884302139282,0.15543627738952637,-0.006649613,0.007297873,0.002995715,0.5807087214651463,-0.760073217,0.002616349,-0.291649192
1710359162328235300,0.692235352,-0.025608376,0.013799505308270454,-0.008300629,-0.440537661,0.8841524124145508,0.1555657833814621,-0.005766571,0.00242883,0.006055206,0.5805865355021134,-0.760115814,0.002615705,-0.29178116
1710359162338253600,0.702253662,-0.028110949,0.010068949311971664,-0.006194601,-0.440654427,0.8840699791908264,0.1557050496339798,0.001933724,-0.003180087,0.001948714,0.5804827748773663,-0.760161486,0.002653066,-0.291868604
1710359162348272600,0.712272705,-0.028849442,0.012189410626888275,-0.00756826,-0.440745682,0.8839948773384094,0.15587201714515686,0.006923109,-0.005409181,0.000255808,0.5803772355753057,-0.760216266,0.002689748,-0.291935235
1710359162358291500,0.722291504,-0.030707531,0.007711039,-0.006440677,-0.44078663,0.8839265704154968,0.15614353120326996,0.008779883,0.000823677,-0.000732809,0.5802414021340778,-0.760305337,0.002749028,-0.291972719
1710359162368309500,0.73230957,-0.021368092,0.009204168,-0.006688351,-0.440790147,0.8838862180709839,0.15636281669139862,0.00702852,0.00789845,-0.001089334,0.5801383239139428,-0.760377233,0.002805373,-0.291990032
1710359162378328600,0.742328613,-0.02748484,0.013311827555298805,-0.003621988,-0.44078508,0.8838586211204529,0.15653179585933685,0.00227806,0.00600332,-0.000998989,0.5800500372787689,-0.76043252,0.002877914,-0.292020496
1710359162388347400,0.752347412,-0.033462036,0.010049668,0.000128808,-0.44078359,0.8838258981704712,0.15672163665294647,0.002245992,0.004006743,0.005097866,0.5799466159524729,-0.760494584,0.002967466,-0.292063579
1710359162398366500,0.762366455,-0.038826443,0.009454185,-0.00208774,-0.440827638,0.883754313,0.15700115263462067,0.004609346,0.00166744,0.00457406,0.5798029185323087,-0.760586194,0.003036746,-0.292109597
1710359162408384500,0.772384521,-0.038208857,0.009153994,-0.001881612,-0.440899581,0.8836565017700195,0.15734952688217163,0.007504195,-0.000462532,0.002013206,0.5796280323161401,-0.760700446,0.003097485,-0.292158604
1710359162418403300,0.78240332,-0.038792089,0.006744898,-0.001953251,-0.440912753,0.883594275,0.15766233205795288,0.007715672,-0.000201821,0.004370824,0.5794796657912822,-0.760802925,0.003173756,-0.292185396
1710359162428422400,0.792422363,-0.033770699,0.005701578,-0.000572935,-0.440880686,0.8835594058036804,0.1579468846321106,0.008705944,-0.000426352,0.007336274,0.5793528820411525,-0.760896064,0.003259439,-0.292193271
1710359162438441500,0.802441406,-0.032365084,0.004422994,0.000631347,-0.440796554,0.8835588693618774,0.15818381309509277,0.007416397,-0.0026232,0.003635645,0.5792569976656272,-0.760973491,0.003354873,-0.292180493
1710359162448459300,0.812459229,-0.037640806,0.007592636,0.000928289,-0.440687329,0.8835718035697937,0.1584159880876541,0.00468269,-0.003399074,0.001862273,0.5791651387216246,-0.76104926,0.003466211,-0.29216396
1710359162458478300,0.822478271,-0.034638621,0.005133206,-0.000815815,-0.440640062,0.8835517764091492,0.15865904092788696,0.003399462,-0.004675984,0.003969073,0.5790560478291271,-0.761128674,0.003558571,-0.292172209
1710359162468497400,0.832497314,-0.043656085,0.005512228,-3.79055E-05,-0.440609872,0.8835038542747498,0.15900810062885284,0.002438545,-0.007634223,0.001376972,0.5789060172831859,-0.761242927,0.003641124,-0.292170612
1710359162478515500,0.842515381,-0.059765812,0.009945326,0.001738423,-0.44054845,0.8834552764892578,0.1594494879245758,0.000683248,-0.008287251,0.006550923,0.5787148384501012,-0.761387239,0.003770189,-0.292172068
1710359162488534500,0.852534424,-0.067137972,0.007825768,-0.000578793,-0.440487087,0.883390486,0.15997686982154846,0.000866115,-0.007734299,0.003978729,0.5784829643107459,-0.761559616,0.003922148,-0.292179939
1710359162498553600,0.862553711,-0.043852363,0.007636684,-0.001544722,-0.440438956,0.8833258748054504,0.16046470403671265,0.000695884,-0.005853951,0.00141573,0.5782744708477383,-0.761719133,0.004039424,-0.292175112
1710359162508572700,0.872572754,-0.055170529,0.009702018,-0.000251225,-0.440369576,0.8832764029502869,0.16092759370803833,0.000290781,-0.006475687,0.004264012,0.5780792162666644,-0.761870364,0.004164662,-0.292165574
1710359162518590500,0.882590576,-0.051868476,0.003088856,-0.002526896,-0.44032532,0.8832124471664429,0.1613990068435669,0.003435612,-0.006762743,0.006188288,0.5778761115686188,-0.7620244,0.004280256,-0.292164026
1710359162528609500,0.892609619,-0.063229524,0.001124723,-0.00493173,-0.440328598,0.8831248879432678,0.16186818480491638,0.004919052,-0.015876353,4.27961E-05,0.5776695589089013,-0.762177824,0.004365684,-0.292170957
1710359162538628600,0.902628662,-0.094211668,0.007154386,0.000941605,-0.440339059,0.8829919099807739,0.1625644713640213,0.004441172,-0.023525178,-0.003461108,0.5773610333539829,-0.762405438,0.004492908,-0.292185163
1710359162548647400,0.912647461,-0.120365247,0.011198395863175392,-0.00093113,-0.440361112,0.8828151822090149,0.16346080601215363,0.002143979,-0.024370968,-0.001519337,0.5769535217850733,-0.762698201,0.004675114,-0.292222898
1710359162558665500,0.922665527,-0.141986653,0.017203026,0.003540584,-0.440411627,0.8825647830963135,0.16467268764972687,0.00187403,-0.026272058,-0.001510397,0.5763972248491869,-0.763093809,0.004917234,-0.292283971
1710359162568684500,0.93268457,-0.151472569,0.015093535,-0.014724439,-0.44050929,0.8822934627532959,0.1658616065979004,0.001224011,-0.034316719,-0.003538609,0.575840384,-0.763481741,0.005141176,-0.292364751
1710359162578703400,0.942703369,-0.192529723,0.022267557680606842,-0.018390814,-0.440705329,0.8819214105606079,0.16731368005275726,0.000153512,-0.027566373,0.011855021119117737,0.5751429214388323,-0.763955343,0.005392163,-0.292496066
1710359162588721400,0.952721436,-0.141079322,0.017906845,-0.029005641,-0.44094941,0.8815377354621887,0.16868622601032257,-0.001006216,-0.008826435,0.004821435,0.5744703705758507,-0.764402793,0.005611293,-0.292644439
1710359162598740500,0.962740479,-0.13120538,0.013013021,-0.033154581,-0.441248,0.881179929,0.16977143287658691,-0.000997484,-0.011138976,-0.003923774,0.5739255633803618,-0.764756778,0.005725989,-0.292786278
1710359162608759300,0.972759277,-0.164529234,0.006311389,-0.014120169,-0.441484123,0.8808299899101257,0.1709691882133484,0.001893669,0.009520411,0.005941272,0.5733450003114559,-0.765147074,0.005878212,-0.292900956
1710359162618778400,0.98277832,-0.194177687,0.002702273,0.002746962,-0.441603601,0.8804865479469299,0.17242302000522614,-0.001908332,0.027258753776550293,-0.001097336,0.5726771894691097,-0.765620125,0.006110202,-0.292966396
1710359162628796700,0.992796631,-0.248285934,0.005720379,0.022041298,-0.441596895,0.8801299333572388,0.17425139248371124,-0.007164091,0.022595286,-0.006572604,0.5718678117321234,-0.766214072,0.006456991,-0.292987306
1710359162638815500,1.00281543,-0.298448682,0.001567978,0.058875214,-0.441350639,0.8797908425331116,0.17657169699668884,0.001088828,0.038345695,-0.015393153,0.570880871,-0.766966045,0.006995365,-0.29293192
1710359162648834600,1.012834473,-0.312429488,-0.007043512,0.11197145283222198,-0.440693587,0.8795843720436096,0.17922207713127136,0.021626204252243042,0.074700296,-0.022087097,0.5698307080902663,-0.767822407,0.007732445,-0.292714804
1710359162658853600,1.022853516,-0.347045243,-0.029117122,0.18080857396125793,-0.43941766,0.8796132802963257,0.18218906223773956,0.04665643,0.11516827344894409,-0.026991963,0.5687742477624358,-0.768777364,0.008711685,-0.292235214
1710359162668871400,1.032871337890625,-0.405396193,-0.07587456,0.25440555810928345,-0.437421709,0.879875124,0.18569374084472656,0.067899615,0.16776281595230103,-0.016992569,0.5676557702859233,-0.769901245,0.009947091,-0.291410597
1710359162678890500,1.042890380859375,-0.456537664,-0.125556633,0.3407739996910095,-0.434620619,0.8803573846817017,0.18993663787841797,0.079777479,0.22845309972763062,0.003346443,0.5664253915017201,-0.771257075,0.011438737048087518,-0.290162014
1710359162688909600,1.052909668,-0.445644259,-0.180976421,0.425396204,-0.430944443,0.8811468482017517,0.19459547102451324,0.085256577,0.27797186374664307,0.002944827,0.5652398385765832,-0.772738659,0.013141532,-0.288455019
1710359162698927400,1.062927246,-0.399599284,-0.234455362,0.5208247303962708,-0.426359236,0.8823369741439819,0.1992463320493698,0.093046308,0.3239312171936035,-0.008114725,0.5642873678125048,-0.774208199,0.014994338959741765,-0.286280529
1710359162708946400,1.072946533203125,-0.35839805,-0.294196874,0.6502628922462463,-0.420669496,0.8840478658676147,0.20370721817016602,0.11587515473365784,0.38055479526519775,-0.002306461,0.5636758035048534,-0.775604927,0.017047230868259787,-0.283577173
1710359162718965000,1.082965087890625,-0.315143794,-0.354212284,0.795015812,-0.413579851,0.8863751888275146,0.20806463062763214,0.1443079710006714,0.43897271156311035,0.014316916465759277,0.5634132401397788,-0.776952491,0.019420225,-0.280237895
1710359162728984000,1.092984130859375,-0.291174531,-0.396771193,0.9157334566116333,-0.405162901,0.8892526626586914,0.21230371296405792,0.15169915556907654,0.4716787338256836,0.028495192527770996,0.5634675109610905,-0.778243326,0.022117510069036003,-0.276319687
1710359162739002000,1.103002197265625,-0.285391748,-0.434277296,1.032378077507019,-0.39558056,0.8925415277481079,0.2165316790342331,0.1484644114971161,0.4851136803627014,0.030889540910720825,0.5637352906233325,-0.77950892,0.025133271403185407,-0.271913235
1710359162749021000,1.113020996,-0.222364053,-0.507652402,1.1642767190933228,-0.384713352,0.8962553143501282,0.22073090076446533,0.1693355143070221,0.5110933184623718,0.053301692,0.5642470249086294,-0.780740341,0.028459941,-0.266945483
1710359162759040000,1.123040039,-0.147456259,-0.617306769,1.3182820081710815,-0.372304797,0.9005448222160339,0.2245175838470459,0.2117823362350464,0.5555251240730286,0.091171384,0.5652511278606839,-0.781816478,0.031965362,-0.261213296
1710359162769058300,1.133058349609375,-0.047466803,-0.73391819,1.5032668113708496,-0.357962012,0.9054707884788513,0.22800415754318237,0.2488006353378296,0.6161661744117737,0.13425467908382416,0.5667633228089745,-0.782768303,0.035719159,-0.254513769
1710359162779077000,1.143077148,0.078018151,-0.831018627,1.6762933731079102,-0.341673821,0.9110830426216125,0.23062191903591156,0.2590627670288086,0.6591683030128479,0.1625663936138153,0.5689689557059827,-0.78341186,0.039709195225741664,-0.246907436
1710359162789096200,1.153096191,0.15133285522460938,-0.931136668,1.8570616245269775,-0.323445976,0.917233944,0.23251813650131226,0.24591606855392456,0.67206049,0.17788231372833252,0.5717451915033008,-0.783787837,0.043996542,-0.238429063
1710359162799115300,1.163115234,0.24779705703258514,-1.077944756,2.026703357696533,-0.303175449,0.9237954616546631,0.23385179042816162,0.2387070655822754,0.6732810139656067,0.21629774570465088,0.5750259977574863,-0.783946406,0.048517328710629325,-0.228952452
1710359162809133000,1.173133056640625,0.32656216621398926,-1.247488737,2.1949613094329834,-0.280840248,0.9306535720825195,0.23454809188842773,0.24399027228355408,0.6643782258033752,0.25866174697875977,0.5788305279045599,-0.783870256,0.05311746,-0.218360291
1710359162819152100,1.183152099609375,0.44417881965637207,-1.409570336,2.380744695663452,-0.256309211,0.9376934170722961,0.23459863662719727,0.24729129672050476,0.6655017137527466,0.2988942563533783,0.583113104,-0.783552974,0.057827831569089515,-0.206590715
1710359162829171200,1.193171142578125,0.6748812794685364,-1.562785268,2.5593245029449463,-0.229517236,0.9450097680091858,0.23297758400440216,0.24222779273986816,0.664823055,0.3174070119857788,0.5882189809281407,-0.78266832,0.062602636,-0.193674218
1710359162839190300,1.203190185546875,0.8648264408111572,-1.706616402,2.753720760345459,-0.200488582,0.9525250196456909,0.22912953794002533,0.22925139963626862,0.6539354920387268,0.338268518,0.5942709682288624,-0.781035908,0.067436495,-0.179658628
1710359162849208000,1.213208008,0.9880666136741638,-1.858299851,2.943229913711548,-0.169136286,0.9599089622497559,0.22353512048721313,0.20681022107601166,0.6594911217689514,0.39256906509399414,0.6009802330724651,-0.778794444,0.072434625,-0.164484896
1710359162859227100,1.223227051,1.1006019115447998,-1.978378296,3.1062159538269043,-0.135688111,0.9668306112289429,0.21639688313007355,0.17241600155830383,0.6387603282928467,0.45163288712501526,0.6081357765076857,-0.776001681,0.077587603,-0.148231453
1710359162869246200,1.233246094,1.158116102218628,-2.125786066,3.253396987915039,-0.100416467,0.9730075597763062,0.20778024196624756,0.13636618852615356,0.5827784538269043,0.49563464522361755,0.6155897128620395,-0.772673729,0.082857898,-0.130992809
1710359162879264000,1.243263916015625,1.1926809549331665,-2.314801931,3.3912978172302246,-0.063408569,0.9781197905540466,0.19814378023147583,0.11232825368642807,0.5471944808959961,0.5658791065216064,0.6230945970892818,-0.768967901,0.088092316,-0.112610853
1710359162889283000,1.253282958984375,1.2927441596984863,-2.480369806,3.5145599842071533,-0.024853146,0.9820395112037659,0.18703126907348633,0.086773306,0.5296487212181091,0.6177325248718262,0.6307262254068898,-0.764742901,0.093187607,-0.093106377
1710359162899302100,1.263302246,1.4958579540252686,-2.614382744,3.643369197845459,0.015011309646070004,0.9847176671028137,0.17351071536540985,0.057986733,0.5168693661689758,0.6276214122772217,0.6387213598249277,-0.759682351,0.098173749,-0.072661969
1710359162909321000,1.273321044921875,1.7059677839279175,-2.758334637,3.7719295024871826,0.056071896106004715,0.9860593676567078,0.15666155517101288,0.031864508986473083,0.49260884523391724,0.6255801916122437,0.6473268419943184,-0.753461701,0.10308365460728477,-0.051353465
1710359162919339300,1.283339355,1.7773197889328003,-2.909327984,3.8850717544555664,0.098081343,0.9856696724891663,0.13724298775196075,0.005205393,0.457705021,0.6595251560211182,0.6561479966002223,-0.746314588,0.10787043875752499,-0.029127531
1710359162929358300,1.293358398,1.8282638788223267,-3.014138699,3.9664418697357178,0.14059630036354065,0.9832630753517151,0.11587276309728622,-0.032838762,0.4194774627685547,0.7022881507873535,0.6648507080708872,-0.73842969,0.11250766738789715,-0.0060976
1710359162939377200,1.303377197265625,1.814118504524231,-3.099930763,4.015209197998047,0.1830359250307083,0.9786977171897888,0.092999063,-0.0781928,0.34735214710235596,0.7371248006820679,0.6731977135386382,-0.729939167,0.11699720468111072,0.017475032075169396
1710359162949396200,1.313396240234375,1.748811126,-3.220128059,4.060697078704834,0.22506478428840637,0.9718914031982422,0.069086947,-0.107465312,0.2935504913330078,0.7910357713699341,0.6809758622704166,-0.721003457,0.12123319403286048,0.041574710566025054
1710359162959414300,1.323414306640625,1.663958191871643,-3.396283388,4.112308502197266,0.26655590534210205,0.9627941846847534,0.044445157051086426,-0.115631253,0.2738543748855591,0.8452794551849365,0.6880179008109211,-0.711752548,0.12502355106621724,0.066398788
1710359162969433000,1.333433105,1.6877994537353516,-3.560486555,4.167101860046387,0.30736619234085083,0.9514138102531433,0.018386609852313995,-0.137612164,0.268404484,0.8751223087310791,0.6945090671855879,-0.701949462,0.1282975384222658,0.091999914
1710359162979452200,1.343452148,1.6406636238098145,-3.694154501,4.212194919586182,0.34720009565353394,0.9377447962760925,-0.009329277,-0.191606194,0.24832099676132202,0.8980010747909546,0.7004908463014371,-0.691478485,0.1311215707351278,0.11822577812839466
1710359162989470200,1.353470215,1.5596176385879517,-3.805312872,4.240849018096924,0.38571158051490784,0.9218360781669617,-0.038013201,-0.260635227,0.23748105764389038,0.9315831661224365,0.7056879362002749,-0.68056778,0.13349492939878307,0.14495253138468273
1710359162999489000,1.363489013671875,1.4630759954452515,-3.911968708,4.235985756,0.4224647283554077,0.9038626551628113,-0.067495093,-0.323175877,0.19271010160446167,0.9457451701164246,0.7100418537569714,-0.66927644,0.13535693659341064,0.17201153786403756
1710359163009508000,1.373508056640625,1.3092046976089478,-4.016947269,4.203148365020752,0.45699647068977356,0.8841165900230408,-0.097426534,-0.370479196,0.12455034255981445,0.9424124956130981,0.7134399704583286,-0.657756252,0.1365410024100035,0.19929028672445034
1710359163019527200,1.383527099609375,1.0840927362442017,-4.082992554,4.1670756340026855,0.4890807271003723,0.8629226684570312,-0.127139181,-0.406195074,0.071494997,0.943789542,0.7156670146321714,-0.64627078,0.13698352677786244,0.22669409927661457
1710359163029545000,1.393544922,0.8982526063919067,-4.118946075,4.128547191619873,0.5186634063720703,0.8405775427818298,-0.15626204,-0.431337357,0.041411102,0.9102140069007874,0.7166489652896613,-0.634950719,0.13677194188023326,0.2540578993320677
1710359163039564000,1.403563965,0.7215622663497925,-4.206762791,4.099666118621826,0.5457084774971008,0.8172475099563599,-0.185226262,-0.446587443,0.027082324028015137,0.8730772137641907,0.7165458899881637,-0.623633829,0.13589597585442492,0.28138069650357583
1710359163049583000,1.413583008,0.49048346281051636,-4.282646656,4.0811381340026855,0.5702250003814697,0.7931579947471619,-0.213878587,-0.456531703,0.044534385204315186,0.8758963346481323,0.7152484323773569,-0.612410398,0.13421702964672827,0.3088026882130571
1710359163059602000,1.423601806640625,0.30622759461402893,-4.304495811,4.026195526123047,0.5921502709388733,0.7686449885368347,-0.241956651,-0.471361756,0.080842316,0.9028758406639099,0.7127493752715227,-0.60137039,0.13181552164219015,0.3361051669056492
1710359163069620200,1.433620117,0.2062530815601349,-4.360592365,3.957702637,0.6113104820251465,0.7439166903495789,-0.269976735,-0.489362299,0.084391415,0.9105406999588013,0.7093444314638042,-0.590279182,0.12877155734064383,0.36306860609371694
1710359163079639300,1.443639404296875,0.032511383295059204,-4.489192009,3.885094404220581,0.6274702548980713,0.7192124724388123,-0.298352927,-0.498853981,0.091425896,0.9263436794281006,0.7051247754071949,-0.579001108,0.12482488291065595,0.38984037961665186
1710359163089658000,1.453658203,-0.081769384,-4.591773987,3.822751522064209,0.6405330896377563,0.6948383450508118,-0.326981694,-0.517196357,0.11898916959762573,0.933961034,0.7000301294916913,-0.567582562,0.11982983212123065,0.4164716608130226
1710359163099676200,1.46367627,-0.108283818,-4.648790836,3.764974355697632,0.6506823301315308,0.6706192493438721,-0.356205523,-0.558977008,0.11180567741394043,0.8982281684875488,0.6942936773081887,-0.555756057,0.11415973586430263,0.44278558183604944
1710359163109695200,1.473695313,-0.160143554,-4.648947239,3.6748335361480713,0.6579501032829285,0.6466839909553528,-0.385877579,-0.617010832,0.075392485,0.8584117293357849,0.6880309522434461,-0.543504216,0.10800176861429292,0.46856398429363266
1710359163119714000,1.483714111328125,-0.354127675,-4.555870056,3.5727622509002686,0.6625290513038635,0.6236460208892822,-0.414874703,-0.671516538,0.06913358,0.832919717,0.6810690155533033,-0.531305665,0.10137525847968379,0.49354074079867594
1710359163129733000,1.493733154296875,-0.575338364,-4.435890675,3.379129171,0.6646540760993958,0.6025915145874023,-0.441721976,-0.694897056,0.10474491119384766,0.8312788605690002,0.6731708143946113,-0.519891242,0.09408565,0.5173992246481313
1710359163139751200,1.503751220703125,-0.543002009,-4.403903484,3.2646217346191406,0.6642146706581116,0.5831186175346375,-0.467751741,-0.670104623,0.11410123109817505,0.7883235812187195,0.6649317350817381,-0.508598997,0.0863203,0.5401312972556284
1710359163149770000,1.51377002,-0.56953609,-4.351144314,3.2396676540374756,0.6618103981018066,0.5641319751739502,-0.493722856,-0.628088534,0.080216229,0.6610507369041443,0.6563877734559662,-0.496965197,0.07851218,0.5621535781000105
1710359163159789000,1.523789063,-0.498660624,-4.259210587,3.142612934112549,0.6577472686767578,0.5458065271377563,-0.519099116,-0.614061356,0.11608922481536865,0.6210430860519409,0.6474658275588437,-0.485228801,0.070735146,0.5833846866697844
1710359163169808100,1.533808105,-0.305798501,-4.161384583,3.0520851612091064,0.6519691944122314,0.5275999307632446,-0.544586658,-0.630057573,0.13249534368515015,0.6119236946105957,0.6387158744859618,-0.472952616,0.063423231,0.6036020662553948
1710359163179826000,1.543825927734375,-0.252307832,-4.068873882,2.9504714012145996,0.6446166038513184,0.5095991492271423,-0.569893122,-0.634210169,0.10395681858062744,0.6110765933990479,0.6300922561216589,-0.460278353,0.056544573,0.6228404925548632
1710359163189845000,1.553844970703125,-0.274775594,-3.939857244,2.8477885723114014,0.6358279585838318,0.49252307415008545,-0.594259024,-0.629098892,0.11239638924598694,0.5847527980804443,0.6213776681135054,-0.447654468,0.049759099,0.6411078643957441
1710359163199864000,1.563864013671875,-0.306718081,-3.775084257,2.7524824142456055,0.6260638236999512,0.47658276557922363,-0.61718148,-0.62081486,0.12905389070510864,0.5036713480949402,0.6124981817454792,-0.435375308,0.043099888,0.6583591624243573
1710359163209882000,1.573882080078125,-0.283896655,-3.673079967,2.670015811920166,0.6155542731285095,0.4615870416164398,-0.638772607,-0.598601758,0.13013362884521484,0.45427852869033813,0.6035096482908257,-0.423402459,0.036661487337324467,0.6746573608105472
1710359163219901200,1.583901123046875,-0.262419343,-3.616094828,2.5883851051330566,0.6041118502616882,0.44719106,-0.659597576,-0.571992159,0.095869273,0.41744059324264526,0.5944955822355297,-0.411431167,0.030423826174516368,0.6901983220436624
1710359163229920300,1.593920166015625,-0.346137375,-3.566963434,2.485614776611328,0.5912829041481018,0.4340142011642456,-0.67971772,-0.565770268,0.042975605,0.4220120310783386,0.585488361,-0.399460174,0.023931286,0.70502641
1710359163239939300,1.603939208984375,-0.454394609,-3.526919842,2.3694703578948975,0.5772522687911987,0.4225310981273651,-0.69874692,-0.569653392,0.002563536,0.475388765,0.5763944470844101,-0.387734037,0.016995882781776356,0.7191264745145902
1710359163249957000,1.613957031,-0.632448792,-3.501050472,2.210529327392578,0.5619820952415466,0.41327744722366333,-0.716503978,-0.568207681,-0.014000684,0.5167969465255737,0.5672495624363305,-0.376377828,0.009367806,0.7324479283283633
1710359163259976200,1.623976074,-0.792900503,-3.480179548,2.0123367309570312,0.5453259348869324,0.4067537486553192,-0.732919514,-0.564567327,0.015731663,0.5158479809761047,0.5581875508852857,-0.365430679,0.000808133,0.7449070496638344
1710359163269995300,1.633995361328125,-0.902933538,-3.46303606,1.830223560333252,0.5273503065109253,0.40273192524909973,-0.748136818,-0.553809047,0.027443915605545044,0.5060713887214661,0.5493734237333731,-0.354765423,-0.008549192,0.7564769104861705
1710359163280014000,1.64401416,-0.983679235,-3.433697224,1.6797901391983032,0.5083295106887817,0.40080803632736206,-0.762203395,-0.536085308,0.014490455389022827,0.4839898943901062,0.540784275,-0.34431915,-0.018510084,0.7672379828234711
1710359163290032000,1.654032227,-1.056304455,-3.401545525,1.4989514350891113,0.488434374,0.4006756544113159,-0.775171459,-0.522141039,0.016621739,0.46492981910705566,0.532482417,-0.334033422,-0.02891245,0.7772053312087159
1710359163300051200,1.66405127,-1.14430654,-3.391276598,1.2866982221603394,0.46746590733528137,0.4026060998439789,-0.787009537,-0.509000421,0.026471108198165894,0.4819710850715637,0.5246309932671026,-0.323886287,-0.039911337,0.7862996756214292
1710359163310070000,1.674070068359375,-1.255487084,-3.376209021,1.0814018249511719,0.44541457295417786,0.40671175718307495,-0.797616065,-0.491053671,0.026958316564559937,0.4830561876296997,0.5172546776976917,-0.313894938,-0.051593992,0.7945159263481129
1710359163320088000,1.684088134765625,-1.377247334,-3.372157812,0.865395725,0.4223081171512604,0.4130374491214752,-0.806880355,-0.46687907,-0.004147589,0.4814866781234741,0.5103387865538895,-0.304073826,-0.064022965,0.8018692951674687
1710359163330107100,1.694107177734375,-1.48506856,-3.382380009,0.6064885258674622,0.39797109365463257,0.42164233326911926,-0.814761817,-0.45232296,-0.068065614,0.49280136823654175,0.5040233095847706,-0.294361337,-0.077269007,0.8082954644030256
1710359163340126000,1.704125977,-1.647961378,-3.394278288,0.36611583828926086,0.37225469946861267,0.4325108528137207,-0.821194708,-0.448182493,-0.157013416,0.49056732654571533,0.4983676606032263,-0.284692461,-0.091393896,0.8137732666028241
1710359163350145000,1.71414502,-1.926170111,-3.377275467,0.12288668006658554,0.34540674090385437,0.44638264179229736,-0.825491786,-0.451363802,-0.24403581,0.5026615858078003,0.493178687,-0.275417776,-0.106766832,0.8182423979241777
1710359163360163300,1.724163330078125,-2.288003922,-3.34746027,-0.117622592,0.3175946772098541,0.4636986553668976,-0.827113748,-0.458357066,-0.295317888,0.525279701,0.4883825541360361,-0.266759867,-0.123621596,0.8216077410107645
1710359163370182100,1.734182129,-2.659371376,-3.385253191,-0.407274127,0.2885439991950989,0.4850781261920929,-0.825494766,-0.46141085,-0.296601534,0.5517063140869141,0.48394083508913593,-0.258798055,-0.142394462,0.8237407168520048
1710359163380201200,1.744201172,-2.840308428,-3.413491488,-0.680924058,0.25771552324295044,0.5092796683311462,-0.821107209,-0.47323069,-0.303804755,0.5989087224006653,0.48008078168633367,-0.250959892,-0.162682329,0.8246673219102797
1710359163390220300,1.754220215,-3.071491241,-3.321852684,-0.96505326,0.22578127682209015,0.5354315638542175,-0.81384021,-0.513867259,-0.365814805,0.5992863774299622,0.4768970423766813,-0.243384058,-0.183967662,0.8243114633058168
1710359163400238000,1.764238037109375,-3.350614309,-3.20096159,-1.302879691,0.19313214719295502,0.5638083815574646,-0.803006947,-0.562272787,-0.3937186,0.5921915173530579,0.4745162022730319,-0.236475845,-0.206338823,0.8223977008476713
1710359163410257200,1.774257080078125,-3.535630465,-3.100086451,-1.663439155,0.15940359234809875,0.5939767956733704,-0.788531542,-0.593928158,-0.390195668,0.5736115574836731,0.47314313846085304,-0.230106437,-0.229750416,0.8187803369131119
1710359163420276200,1.784276123046875,-3.499732733,-2.999685049,-1.988296866,0.12439184635877609,0.6241559982299805,-0.771333873,-0.619188607,-0.398219109,0.5192586779594421,0.4729210341636046,-0.223778761,-0.253487935,0.8136415499159185
1710359163430295300,1.79429541,-3.377475023,-2.864230394,-2.254304647,0.088372931,0.6526822447776794,-0.752460063,-0.665475607,-0.435549617,0.4443240761756897,0.47384623626831873,-0.217187646,-0.276766159,0.807279203
1710359163440313000,1.804312988,-3.333353281,-2.667876959,-2.490979195,0.051947444677352905,0.6791960597038269,-0.732116282,-0.739447474,-0.487148821,0.39208948612213135,0.47581899687181006,-0.210563848,-0.299340475,0.7997840476969592
1710359163450332200,1.814332275390625,-3.521031141,-2.430378437,-2.769257069,0.015309249982237816,0.7047325372695923,-0.709307909,-0.834767282,-0.534429133,0.3476288914680481,0.4787628114651113,-0.204472805,-0.321771521,0.7908477764208384
1710359163460351200,1.824351318359375,-3.737679005,-2.157300472,-3.020667315,-0.021584392,0.7299788594245911,-0.683128893,-0.936865985,-0.564695597,0.29927879571914673,0.4826610620560405,-0.199327392,-0.344534694,0.7801300352002395
1710359163470369000,1.834369141,-3.935501337,-1.830898762,-3.237998009,-0.058245827,0.7544381618499756,-0.653781712,-1.020306468,-0.592099845,0.2615240812301636,0.4874367401946778,-0.195326918,-0.367364328,0.7676563891057108
1710359163480388000,1.844388184,-4.090164661,-1.499375701,-3.419733286,-0.094469525,0.7775323987007141,-0.621706486,-1.090009212,-0.583348989,0.22978448867797852,0.49307918722586386,-0.192516026,-0.389979923,0.7534760740600079
1710359163490407200,1.854407227,-4.176215649,-1.198735237,-3.601633072,-0.130350173,0.7986878156661987,-0.587457776,-1.15653038,-0.522534192,0.1812536120414734,0.49950493274264385,-0.190737145,-0.412177683,0.7377152385991566
1710359163500426000,1.864426025390625,-4.069929123,-0.934258699,-3.756204367,-0.166251063,0.8168251514434814,-0.552410543,-1.210122228,-0.434607685,0.15293550491333008,0.5067698315897278,-0.189464902,-0.43347178,0.7206869747189008
1710359163510444300,1.874444336,-3.929271698,-0.647813439,-3.851822615,-0.201941609,0.8312181830406189,-0.517973006,-1.258782268,-0.378627181,0.13136112689971924,0.5147955734954044,-0.18839366,-0.453344612,0.7028314643174861
1710359163520463000,1.884463134765625,-3.788271904,-0.38220787,-3.97094655,-0.23730576,0.8419995307922363,-0.48448205,-1.315047145,-0.365375996,0.071396172,0.5235606920995185,-0.187589984,-0.471772157,0.6841968548554146
1710359163530482200,1.894482177734375,-3.713314533,-0.126459971,-4.039316654,-0.272508264,0.8493058681488037,-0.452127099,-1.358885169,-0.426515341,-0.001577675,0.5329833958817342,-0.186964028,-0.488856725,0.6648250983950074
1710359163540501000,1.904500977,-3.800133944,0.1208675280213356,-4.057990074,-0.30707857,0.8539170622825623,-0.420152843,-1.362965465,-0.557881296,-0.039792776,0.5427433904413631,-0.186962788,-0.504944051,0.644597603
1710359163550519300,1.914519287109375,-3.967014313,0.3923823833465576,-4.050134182,-0.340813607,0.8564552664756775,-0.387724936,-1.377478719,-0.677881539,-0.094605386,0.5526390743745522,-0.188002098,-0.520377498,0.6232597365429712
1710359163560538000,1.924538086,-4.236087799,0.647675633,-3.988921404,-0.373419404,0.8572589159011841,-0.354492903,-1.419808745,-0.773945868,-0.151610553,0.5624961036612469,-0.190396287,-0.535259563,0.600703476
1710359163570557200,1.934557129,-4.736223221,0.9194781184196472,-3.894208908,-0.404636085,0.8570140600204468,-0.319056004,-1.448284507,-0.819751978,-0.140691251,0.571887571,-0.194685157,-0.550063345,0.5766045323015762
1710359163580575200,1.944575195,-5.208527565,1.2749534845352173,-3.832172632,-0.434500009,0.8557338118553162,-0.280943871,-1.439904928,-0.769887865,-0.036576211,0.5809243426400602,-0.201370744,-0.56478128,0.5504533292658549
1710359163590594000,1.954593994140625,-5.642832756,1.6293094158172607,-3.721331596,-0.463089526,0.8529086112976074,-0.241029292,-1.444686413,-0.669299603,0.006990016,0.5896587767671734,-0.210345152,-0.578999371,0.5223191248626783
1710359163600613000,1.964613037109375,-5.996920586,1.975479006767273,-3.603716612,-0.490324944,0.8482843637466431,-0.199987918,-1.413529515,-0.59480536,0.060675203800201416,0.5979640015966141,-0.221518725,-0.592398087,0.492374923
1710359163610632200,1.974632080078125,-6.235443592,2.3356685638427734,-3.483266592,-0.516492844,0.8414033651351929,-0.158983111,-1.384996414,-0.566836596,0.12217895686626434,0.6058904515362226,-0.234489443,-0.604585103,0.4608561779317883
1710359163620650000,1.984649902,-6.408121109,2.778665542602539,-3.305801868,-0.541428983,0.8322069048881531,-0.119525917,-1.441023469,-0.559944332,0.1199379563331604,0.6135939292332543,-0.249082127,-0.61497572,0.4280952148372341
1710359163630669000,1.994668945,-6.666365147,3.294063091278076,-3.136380911,-0.565039575,0.8209572434425354,-0.08221668,-1.534951329,-0.563846707,0.15991449356079102,0.6212212119128508,-0.2655675,-0.623189829,0.39394490735443083
1710359163640688000,2.004688232421875,-6.878426075,3.7232658863067627,-2.920161963,-0.587544203,0.8078081011772156,-0.047306359,-1.584269762,-0.515373409,0.2746776342391968,0.6286668775726492,-0.283854134,-0.629105437,0.3583729257534988
1710359163650707200,2.014707275390625,-7.29396534,4.041167259216309,-2.58846879,-0.608503819,0.7934294939041138,-0.013891778,-1.580293298,-0.44684124,0.4124056100845337,0.6352447273483571,-0.30411778,-0.632903221,0.3215744734474539
1710359163660725000,2.024725098,-7.965970039,4.389697074890137,-2.204794645,-0.627533555,0.7783299088478088,0.020114492624998093,-1.56430006,-0.385034502,0.6996884346008301,0.640180828,-0.327237057,-0.634801666,0.2830396694583857
1710359163670744000,2.034744141,-8.463493347,4.810215950012207,-1.830820203,-0.644815445,0.7624015212059021,0.054376833,-1.551351547,-0.310573578,1.0960443019866943,0.6434155815772881,-0.353359072,-0.634291559,0.2425446633016451
1710359163680763100,2.044763184,-8.653036118,5.225576400756836,-1.431217194,-0.660771012,0.7456108927726746,0.086290918,-1.55706358,-0.204580069,1.244138240814209,0.6453843515065052,-0.381413955,-0.630609908,0.20083232881244212
1710359163690782000,2.054781982421875,-8.689909935,5.526094436645508,-0.917619109,-0.674926937,0.7289713025093079,0.11434340476989746,-1.561538458,-0.118589282,1.1689817905426025,0.646159646,-0.410616801,-0.623350259,0.1590785334415778
1710359163700800300,2.064800293,-8.888476372,5.715610980987549,-0.375291407,-0.686763108,0.7134097218513489,0.13929542899131775,-1.527912855,-0.153900445,1.1959859132766724,0.645341566,-0.440875584,-0.612598099,0.11784155735419605
1710359163710819300,2.074819336,-9.248357773,5.815267086029053,0.24563656747341156,-0.696052909,0.6991235017776489,0.16351349651813507,-1.481147408,-0.22811532,1.4176480770111084,0.6421362100655132,-0.472748819,-0.598552675,0.076839733
1710359163720838700,2.084838623046875,-9.502593994,5.917536735534668,0.9550017714500427,-0.702233553,0.6868172287940979,0.18748417496681213,-1.404028654,-0.245288968,1.7518011331558228,0.6363273951219428,-0.506183715,-0.580964833,0.036680454
1710359163730856400,2.094856445,-9.788542747,6.052749156951904,1.67630136,-0.705224454,0.6768007874488831,0.2111850380897522,-1.362051487,-0.2030918,1.9848904609680176,0.6280140021855007,-0.541000608,-0.55938436,-0.002423292
1710359163740875500,2.104875488,-9.961666107,6.100481986999512,2.4851577281951904,-0.704855263,0.6693400144577026,0.23486869037151337,-1.355554342,-0.126203358,2.0992226600646973,0.6172182152726879,-0.576879363,-0.533520892,-0.040092993
1710359163750894600,2.114894531,-9.880622864,5.951746463775635,3.3432865142822266,-0.700340807,0.6652878522872925,0.2586788237094879,-1.231665969,-0.083546579,2.1958041191101074,0.604181318,-0.613070861,-0.503471486,-0.075003316
1710359163760913400,2.124913330078125,-9.833446503,5.777371883392334,4.179166793823242,-0.69117707,0.6646615266799927,0.2837243676185608,-1.071213126,0.005824924,2.282498836517334,0.5889161568429891,-0.649126969,-0.469570399,-0.106375072
1710359163770931500,2.134931396484375,-9.372056961,5.518378257751465,4.999805450439453,-0.677315235,0.6676704287528992,0.30896735191345215,-0.966560125,0.16240787506103516,2.454307794570923,0.5724407716627717,-0.683958855,-0.43206939,-0.133521898
1710359163780950500,2.144950439453125,-8.599159241,5.343646526,5.765188217163086,-0.658829033,0.6745124459266663,0.333132803,-0.895721257,0.36258173,2.539669990539551,0.5559035806928128,-0.716614128,-0.391191248,-0.156220615
1710359163790969300,2.154969238,-7.455496311,5.161376476287842,6.438420295715332,-0.635324061,0.6864048838615417,0.3538525104522705,-0.786749303,0.6774866580963135,2.466627836227417,0.5412368751401553,-0.745648412,-0.347756661,-0.1735983
1710359163800988400,2.164988525390625,-5.947840691,5.1638994216918945,6.965178013,-0.60734123,0.7038577198982239,0.3684033155441284,-0.800907731,0.9044033885002136,2.1512651443481445,0.5302256043342917,-0.769908922,-0.30239363,-0.186169778
1710359163811006500,2.175006348,-4.721716881,5.175989151000977,7.398839473724365,-0.575186789,0.726624608,0.37573546171188354,-0.909173012,0.8765859007835388,1.7754793167114258,0.5236094512684614,-0.788994074,-0.255648361,-0.194847476
1710359163821025300,2.185025391,-3.936713696,5.2888102531433105,7.810444355010986,-0.538543105,0.7528437972068787,0.37841472029685974,-0.969193161,0.5855962634086609,1.5484652519226074,0.5200551738103418,-0.803879001,-0.207330454,-0.200836546
1710359163831044400,2.195044434,-3.474756956,5.330446243286133,8.111960411071777,-0.497560501,0.7801433205604553,0.37922289967536926,-1.00141716,0.3116230368614197,1.4702948331832886,0.5180028198746593,-0.815366383,-0.157445571,-0.205089406
1710359163841062700,2.205062744140625,-2.839668036,5.3377909660339355,8.463212966918945,-0.451941878,0.8075103163719177,0.3790457248687744,-1.013115525,0.20777899026870728,1.335660696029663,0.5170734192893431,-0.823540474,-0.106320057,-0.207634808
1710359163851081500,2.215081543,-1.988537908,5.289802074432373,8.724683762,-0.401293516,0.8350991606712341,0.37626153230667114,-0.996930361,0.17829793691635132,1.2214558124542236,0.5181359358251353,-0.827749639,-0.054417775,-0.208337097
1710359163861100500,2.225100586,-1.053144693,5.2081170082092285,8.916802406311035,-0.345862448,0.8624927401542664,0.36943984031677246,-1.005242348,0.1567639708518982,1.172445536,0.5218014339611443,-0.82747409,-0.002559573,-0.207372817
1710359163871119600,2.235119629,-0.439428985,5.134176254272461,9.038179397583008,-0.285981774,0.8883141279220581,0.35932183265686035,-1.006620765,0.12265682220458984,1.2182230949401855,0.5275160031423716,-0.822963633,0.048905831979929655,-0.205099573
1710359163881137400,2.245137451171875,-0.1017612,5.0616936683654785,9.126897811889648,-0.222168371,0.9105183482170105,0.3487086892127991,-0.996444345,0.084675193,1.1799472570419312,0.5337891626280501,-0.815078702,0.10000529348727324,-0.201779195
1710359163891156500,2.255156494140625,0.2706986665725708,4.868847846984863,9.205024719238281,-0.154837176,0.9281336069107056,0.33851712942123413,-0.909890652,0.071546137,1.2042227983474731,0.5401683586049049,-0.804117991,0.1505085374367341,-0.197382146
1710359163901175600,2.265175537109375,0.8944884538650513,4.528461933135986,9.195238113,-0.084271953,0.9410151243209839,0.3277018368244171,-0.780413091,0.14365577697753906,1.3232074975967407,0.5472197222638052,-0.789956466,0.19954875135627914,-0.191571304
1710359163911194600,2.275194580078125,1.692700982093811,4.237615108,9.069789886,-0.011752209,0.9496015310287476,0.31323906779289246,-0.744976878,0.25402694940567017,1.4163141250610352,0.5560407365579775,-0.772016149,0.24619221552656356,-0.184930076
1710359163921212400,2.285212402,2.379098653793335,3.9645702838897705,8.879915237426758,0.061334599,0.9535977840423584,0.2947694659233093,-0.788873672,0.27047741413116455,1.3742215633392334,0.5664753512213484,-0.750486364,0.29009471924301866,-0.178103447
1710359163931231500,2.295231445,2.8778507709503174,3.687882423400879,8.760131836,0.13466089963912964,0.9524735808372498,0.2732410430908203,-0.779451489,0.10923296213150024,1.2295970916748047,0.5780121612815246,-0.725822864,0.3313633816049673,-0.171118359
1710359163941250600,2.305250488,3.0849952697753906,3.4056408405303955,8.576673508,0.20789805054664612,0.9454523921012878,0.25079452991485596,-0.730374217,-0.20341754,1.1405929327011108,0.5897586952540795,-0.698823806,0.3701925967639466,-0.163668266
1710359163951269400,2.315269287109375,3.191687822341919,3.1050407886505127,8.289206504821777,0.2794286012649536,0.9323901534080505,0.22927720844745636,-0.687311292,-0.401186049,1.123994231,0.6009095717388384,-0.670476434,0.4063249394500678,-0.155785114
1710359163961287400,2.325287353515625,3.3870694637298584,2.807901144,8.071413040161133,0.348574698,0.9138680100440979,0.20818553864955902,-0.605212212,-0.364841402,1.0594230890274048,0.6116427030194744,-0.640924703,0.439668391,-0.147650131
1710359163971306500,2.335306396484375,3.771003007888794,2.4227793216705322,7.8980584144592285,0.41559308767318726,0.8903485536575317,0.18590912222862244,-0.479298443,-0.214353561,1.0037270784378052,0.6226038819080395,-0.609801647,0.47020900918459546,-0.139319752
1710359163981325300,2.345325195,4.346735954284668,2.097823381,7.752205848693848,0.4804133474826813,0.8622187376022339,0.1605675369501114,-0.4099482,-0.109884143,0.9830634593963623,0.6344340483291381,-0.576577051,0.49783799845200194,-0.13118578
1710359163991344400,2.355344482421875,4.833974838256836,1.8505185842514038,7.589043617248535,0.5425924062728882,0.829622746,0.13160490989685059,-0.461201966,-0.116030157,0.9622519016265869,0.6471929480700668,-0.540912316,0.522700989,-0.123850397
1710359164001362700,2.365362793,5.065738677978516,1.6925781965255737,7.390720844268799,0.601407528,0.792475164,0.10144982486963272,-0.593045712,-0.098536015,0.910009503,0.6599507592163589,-0.503587704,0.5450911257407965,-0.117218005
1710359164011381500,2.375381591796875,5.3260650634765625,1.5827287435531616,7.213597297668457,0.6564552187919617,0.7509536147117615,0.071661435,-0.707907796,-0.014167607,0.8078856468200684,0.6721544473049509,-0.465048562,0.5652968727752373,-0.111255446
1710359164021400600,2.385400634765625,5.6029582023620605,1.5144176483154297,7.079814910888672,0.7077131271362305,0.705235481,0.042251803,-0.761454523,0.064646721,0.7612454891204834,0.6838067431378171,-0.425030356,0.5835024403597222,-0.106219107
1710359164031418600,2.395418701171875,5.723155975341797,1.3964351415634155,6.998136043548584,0.7552452087402344,0.6552849411964417,0.014368535,-0.777934968,0.22819894552230835,0.8949484825134277,0.6946043831752655,-0.383879801,0.599850453,-0.101688486
1710359164041437400,2.4054375,6.312714099884033,1.281793475151062,6.926695823669434,0.7991148829460144,0.6010387539863586,-0.012964137,-0.81907326,0.42654919624328613,0.9516390562057495,0.704911967,-0.34103733,0.6141754399104624,-0.097884201
1710359164051456500,2.415456543,6.866255760192871,1.3419504165649414,6.700658321380615,0.8385953903198242,0.5432724952697754,-0.040160466,-0.934725761,0.3551955223083496,0.8188470005989075,0.7147098345392253,-0.295666688,0.626498984,-0.096281647
1710359164061475600,2.425475586,7.0979814529418945,1.346768856048584,6.404867649078369,0.873038113,0.48336854577064514,-0.064492933,-1.018545866,0.22526484727859497,0.8693788051605225,0.7231207163185278,-0.249082976,0.6369546342053723,-0.096658719
1710359164071493400,2.435493408203125,7.043985366821289,1.2792688608169556,6.203372955322266,0.9025723338127136,0.4220605790615082,-0.085019328,-0.987578928,0.1504034399986267,0.9584019184112549,0.729999032,-0.202409761,0.6453840916206562,-0.098036746
1710359164081512400,2.445512451171875,6.7808146476745605,1.103032112121582,6.090760707855225,0.9277859926223755,0.35919350385665894,-0.100961857,-0.902364731,0.13561847805976868,0.9508458971977234,0.7353114891459852,-0.156483313,0.6519448181237631,-0.098985035
1710359164091531500,2.455531494140625,6.771656036376953,0.9339635968208313,5.967566013336182,0.948643684,0.2952096462249756,-0.113694578,-0.850224435,0.22751066088676453,0.9810956716537476,0.73953967,-0.111157236,0.6563511092290804,-0.099641229
1710359164101550600,2.465550537109375,6.474603176116943,0.7319436073303223,5.856228828430176,0.965212882,0.23065321147441864,-0.123138435,-0.856906056,0.2868027687072754,1.0784454345703125,0.7426864601983505,-0.066643269,0.6587787625297121,-0.099929681
1710359164111568400,2.475568359,6.056471347808838,0.5230647921562195,5.706286430358887,0.9775145053863525,0.16636314988136292,-0.129571304,-0.842092752,0.3712955117225647,1.2380613088607788,0.7449453855185947,-0.02386301,0.6592760450186265,-0.099207206
1710359164121587500,2.485587402,6.039185047149658,0.4523754119873047,5.474430561065674,0.9857069849967957,0.1034645065665245,-0.132953718,-0.79398036,0.3196769058704376,1.1871987581253052,0.746218647,0.017251635096361254,0.6581986975622524,-0.098155384
1710359164131606500,2.495606445,6.466244220733643,0.40525057911872864,5.211350917816162,0.9901861548423767,0.042177543,-0.133238807,-0.785931945,0.011472303420305252,0.9044179916381836,0.7462457063542136,0.058444908,0.6557170042039642,-0.09867524
1710359164141625300,2.505625244140625,6.318696022033691,0.3548044264316559,4.809692859649658,0.9913408160209656,-0.016149499,-0.130317271,-0.820152462,-0.324884504,0.7614665627479553,0.7449708009540895,0.099121905,0.6519326764095271,-0.100881851
1710359164151643400,2.515643310546875,5.772576808929443,0.2526843547821045,4.344600200653076,0.9897794127464294,-0.069283269,-0.124646232,-0.827303767,-0.383658677,0.9060946106910706,0.7427200541982667,0.1367489679569969,0.6472840198876318,-0.103392889
1710359164161662500,2.525662353515625,4.939694404602051,0.027608901262283325,3.915811061859131,0.9861106276512146,-0.116649814,-0.118232347,-0.734935641,-0.333042026,1.1378856897354126,0.7402970981028247,0.17003494466063676,0.6418504049260496,-0.105244883
1710359164171681300,2.535681396484375,4.591805934906006,-0.203685626,3.513620138168335,0.9809020161628723,-0.158576697,-0.112626933,-0.597433388,-0.322731346,1.1320362091064453,0.7381858337748316,0.19931995741351122,0.6355769738037629,-0.106748395
1710359164181699600,2.545699462890625,4.322378635406494,-0.380570918,3.1754183769226074,0.9746388792991638,-0.196189135,-0.10765285,-0.536360562,-0.431313396,0.9116690158843994,0.7361735725676273,0.22627871129226704,0.6284675949085842,-0.10897274
1710359164191718700,2.55571875,3.7439184188842773,-0.440745175,2.690325975418091,0.9680314660072327,-0.228560805,-0.103320599,-0.565565646,-0.479218185,0.8290743827819824,0.7343349373040714,0.24987311916998958,0.6212110139702709,-0.111411679
1710359164201737500,2.565737548828125,3.3258047103881836,-0.584353447,2.255542516708374,0.9615918397903442,-0.255740911,-0.099688552,-0.612562299,-0.460338861,0.818270743,0.732688765,0.27013583545111497,0.6141517355904828,-0.114067959
1710359164211756500,2.575756591796875,2.778951406478882,-0.780621707,1.8198620080947876,0.9554683566093445,-0.278298557,-0.098133527,-0.591546237,-0.530127406,0.8141064643859863,0.7317080005021196,0.2871657241432071,0.6070165441590678,-0.116919684
1710359164221774600,2.585774658203125,2.1810903549194336,-0.913664997,1.3940244913101196,0.9500359296798706,-0.295977294,-0.099141747,-0.54956907,-0.490949005,0.8335320353507996,0.7315869,0.3005482589710093,0.6000832187777894,-0.119797592
1710359164231793400,2.595793457,1.7522106170654297,-1.017926574,1.0286097526550293,0.9454003572463989,-0.309402078,-0.10241311,-0.562740505,-0.42007485,0.7288779616355896,0.7322205406194832,0.3107436546346658,0.5934912165698679,-0.122717639
1710359164241812500,2.6058125,1.4372262954711914,-1.084110618,0.7283377051353455,0.94155407,-0.319301516,-0.107342549,-0.579981863,-0.419513822,0.5918549299240112,0.7333674902789267,0.31849154973191457,0.5872749436028515,-0.125870507
1710359164251831600,2.615831543,1.039233684539795,-1.134285092,0.4837189018726349,0.9383717179298401,-0.326367229,-0.1137667,-0.550401807,-0.411608875,0.5004854798316956,0.7349943989611909,0.3241440520209243,0.5814183387810943,-0.129098865
1710359164261849300,2.625849365234375,0.6152856349945068,-1.156707525,0.235366091,0.9358527064323425,-0.330642462,-0.121883325,-0.472275317,-0.334213555,0.4746055006980896,0.7372293767366718,0.3274223013646301,0.5760668127339196,-0.132040418
1710359164271868400,2.635868408203125,0.4647565484046936,-1.128481984,0.10172706842422485,0.9338594079017639,-0.332853377,-0.130825385,-0.390249789,-0.262742996,0.4632991552352905,0.7397480796863152,0.32910651650823103,0.5712059216582933,-0.134853682
1710359164281887500,2.645887451171875,0.20764325559139252,-1.068044424,-0.071902774,0.9323122501373291,-0.333464265,-0.139985055,-0.311386228,-0.290620297,0.3993234634399414,0.7423396994593823,0.32965206377116085,0.5668659333149831,-0.137566356
1710359164291906300,2.65590625,0.065300755,-1.000542045,-0.20178993,0.9312953352928162,-0.332302362,-0.149212971,-0.234563589,-0.282565892,0.3434574007987976,0.744952962,0.3290102609660976,0.563156964,-0.140184701
1710359164301924400,2.665924316,-0.149676263,-0.88452512,-0.241934687,0.930590034,-0.330153108,-0.158117816,-0.160570502,-0.278703123,0.3046479821205139,0.7475005607518476,0.32758701042806626,0.5600248569412619,-0.142484613
1710359164311943400,2.675943359,-0.356319427,-0.796594083,-0.293183774,0.9301152229309082,-0.327203542,-0.166804373,-0.086899281,-0.242742807,0.2803298234939575,0.7500852085179022,0.3252398247347542,0.5575095217346827,-0.144133518
1710359164321962200,2.685962158203125,-0.441703856,-0.695931375,-0.304981291,0.9298056960105896,-0.323718518,-0.175122529,-0.042232454,-0.232845873,0.25280505418777466,0.7526181334459651,0.32233730695806917,0.5554614273147638,-0.145352398
1710359164331981300,2.695981201171875,-0.467499763,-0.561133265,-0.335395664,0.929717481,-0.319903076,-0.182448551,-0.020537794,-0.282147765,0.19099348783493042,0.7548636023768014,0.31925767457621107,0.5539406630698462,-0.146305309
1710359164341999600,2.705999512,-0.472430885,-0.404680282,-0.313241363,0.9298489689826965,-0.315976501,-0.188520446,-0.016259491,-0.27725476,0.16631895303726196,0.7567380557484522,0.31618770633062193,0.5529603174533528,-0.146996128
1710359164352018400,2.716018310546875,-0.434657127,-0.266018808,-0.293810666,0.930153489,-0.312360883,-0.192989737,-0.006310225,-0.274385363,0.1349911391735077,0.7581204100765644,0.3134810036494456,0.5524805828495503,-0.147472894
1710359164362037500,2.726037598,-0.544329584,-0.126756549,-0.305320859,0.9307074546813965,-0.308564186,-0.19639729,0.021502017974853516,-0.314940512,0.1449141502380371,0.7592231672748295,0.31061572864878423,0.5525569896571443,-0.147576749
1710359164372056600,2.736056641,-0.641485989,0.021952133625745773,-0.303355455,0.9315378069877625,-0.304564536,-0.198690236,0.051799595,-0.334397316,0.2154291272163391,0.7600551346149147,0.30749198072670064,0.5532662714003449,-0.147177943
1710359164382074400,2.746074462890625,-0.752407968,0.1409570872783661,-0.32792151,0.9326552748680115,-0.300222367,-0.200051919,0.059776365756988525,-0.363153547,0.2602326273918152,0.7606691887336858,0.3040138608510804,0.5545715562353263,-0.146316183
1710359164392093400,2.756093505859375,-0.863685727,0.2552453577518463,-0.359746814,0.9340726733207703,-0.2954036,-0.200611562,0.058481037616729736,-0.370703638,0.32042360305786133,0.7610889959413174,0.3001365733571823,0.5564281256608208,-0.145084042
1710359164402112500,2.766112548828125,-1.086638331,0.39498648047447205,-0.436827749,0.9358845949172974,-0.289749175,-0.200413913,0.037687302,-0.376693785,0.40988656878471375,0.7613397996555559,0.29558183301521407,0.5589493913880432,-0.143418387
1710359164412131600,2.776131591796875,-1.336455941,0.5171592235565186,-0.547256768,0.9382132291793823,-0.282694906,-0.199598745,0.009693265,-0.365147531,0.5172715187072754,0.7614867124893502,0.2898837444355944,0.5622882173995528,-0.141200117
1710359164422149400,2.786149414,-1.542006969,0.608063281,-0.716136634,0.9410857558250427,-0.27392292,-0.198302388,-0.009536684,-0.376177847,0.6137534379959106,0.7615183739685408,0.28301460772193093,0.5663493075790108,-0.138711869
1710359164432168400,2.796168457,-1.720987678,0.6225287318229675,-0.977262199,0.9445760250091553,-0.262743443,-0.196830064,-0.044704199,-0.407163233,0.7168191075325012,0.7614531095404321,0.2748130570255523,0.5710190495594772,-0.136397427
1710359164442187500,2.8061875,-1.896700621,0.5780712962150574,-1.340366602,0.9487205147743225,-0.248236492,-0.1957248,-0.109166682,-0.450951815,0.8552402257919312,0.7613747639672259,0.2650176764693728,0.5761104346430849,-0.134799722
1710359164452205300,2.816205322265625,-2.309076548,0.4580996036529541,-1.744605184,0.953440249,-0.229448825,-0.195716754,-0.187113345,-0.533856869,0.9543532729148865,0.7615228195950534,0.2529358624147935,0.5815196234911666,-0.133945643
1710359164462224400,2.826224365234375,-2.89395237,0.25299254059791565,-2.11648035,0.9583684802055359,-0.205800757,-0.197929025,-0.271143138,-0.569513619,1.039023995399475,0.7623567673156011,0.23763685326900655,0.5869959237672381,-0.133329182
1710359164472243500,2.836243408203125,-3.834463596,0.059274312,-2.416199446,0.9630311727523804,-0.1772414,-0.202870548,-0.349429488,-0.506688118,1.0912373065948486,0.7642211772484554,0.21821868215316143,0.5924063923823348,-0.131913899
1710359164482262300,2.846262207,-4.60168314,-0.125219107,-2.674010754,0.9670606851577759,-0.143840984,-0.21000798,-0.411396682,-0.309863895,1.1253522634506226,0.767030488,0.19436489646230384,0.597677422,-0.129105277
1710359164492280600,2.856280517578125,-5.266973495,-0.263423681,-2.884001493,0.9701277613639832,-0.106241539,-0.218094453,-0.446644306,-0.138036489,1.0720068216323853,0.7703168430119245,0.16684986917035285,0.6025893243687954,-0.125137455
1710359164502299600,2.866299560546875,-5.664135933,-0.382100284,-3.009712458,0.971948504,-0.065321565,-0.225941151,-0.424615681,-0.016099386,0.9461255073547363,0.7736454141562097,0.136503569,0.6069565031552442,-0.120180902
1710359164512318500,2.876318359,-5.998252869,-0.494617254,-3.064830065,0.9722574353218079,-0.022306792,-0.232847616,-0.373990774,0.034895249,0.7778763175010681,0.776736764,0.10432986142786325,0.6104846181270128,-0.114472077
1710359164522337500,2.886337646484375,-6.220433712,-0.557646632,-3.150201082,0.9710184931755066,0.022298578172922134,-0.237962216,-0.313898623,0.004266918,0.6737990379333496,0.7792993156150517,0.070710317,0.6132038337864798,-0.108045298
1710359164532355600,2.896355469,-6.322212219,-0.663179398,-3.317414522,0.9681032299995422,0.06874007,-0.240937456,-0.242639422,-0.101927988,0.6656811237335205,0.7811304079268178,0.035921014121384175,0.6150129708940203,-0.101508478
1710359164542374400,2.906374512,-6.364734173,-0.809364319,-3.534867764,0.9631252288818359,0.11722549051046371,-0.242173478,-0.198461533,-0.193244845,0.6551678776741028,0.7822892486654411,0.000180156,0.6155592807769901,-0.095447641
1710359164552393500,2.916393555,-6.411173344,-0.953640044,-3.72292614,0.9557934999465942,0.1676587164402008,-0.241556391,-0.199262679,-0.180552438,0.6540930271148682,0.7827503162140997,-0.036501365,0.6147271364032042,-0.089890133
1710359164562412500,2.926412598,-6.468004704,-1.077518344,-3.886471987,0.9459772706031799,0.2193833589553833,-0.238742799,-0.232979715,-0.102531582,0.6013374328613281,0.7824300067670783,-0.073884379,0.6125109759329714,-0.084704324
1710359164572430300,2.936430419921875,-6.193527222,-1.153144598,-4.105864525,0.9334842562675476,0.27207455039024353,-0.233629376,-0.260739446,-0.045298487,0.5061665773391724,0.7812515285187441,-0.111480876,0.6088984549311358,-0.080379045
1710359164582449400,2.946449462890625,-5.596502304,-1.370585918,-4.09957552,0.9182684421539307,0.3240344524383545,-0.227562949,-0.257211864,-0.143187344,0.34319406747817993,0.7795779484450329,-0.14764699,0.6036711794454163,-0.077715973
1710359164592468500,2.956468505859375,-5.058351517,-1.471429825,-4.405650139,0.9002484679222107,0.3746200203895569,-0.221839234,-0.23351568,-0.445146173,0.2509987950325012,0.7777984318395583,-0.181645068,0.5967289577856463,-0.077131769
1710359164602487600,2.966487548828125,-4.799962044,-1.713746548,-4.718204975,0.8784458637237549,0.42614781856536865,-0.21617341,-0.246243715,-0.743484855,0.3831045627593994,0.7758185745843541,-0.21500843,0.5879495445119496,-0.078691064
1710359164612505300,2.976505371,-4.312412262,-2.018635273,-4.870382786,0.8526922464370728,0.47759678959846497,-0.211700812,-0.249100327,-0.82676369,0.5700534582138062,0.7740502925599426,-0.247508261,0.5769655579129501,-0.081832546
1710359164622524400,2.986524414,-3.822960854,-2.202860832,-4.937170982,0.8235276341438293,0.5273317694664001,-0.209101722,-0.327784777,-0.765597761,0.627253532,0.7727109680303076,-0.278144271,0.5639901662366713,-0.086421264
1710359164632543500,2.996543457,-3.466863394,-2.176677227,-5.095959187,0.7912579774856567,0.5754478573799133,-0.206810579,-0.552518964,-0.5154351,0.5984273552894592,0.771273503,-0.307169118,0.5497652610558604,-0.092425884
1710359164642562300,3.006562255859375,-3.124034405,-2.077261686,-5.253135681,0.7557999491691589,0.6223888397216797,-0.203466699,-0.770219445,-0.135969222,0.564993143,0.7692403664200169,-0.335012561,0.5348207513682903,-0.100013401
1710359164652580600,3.016580566,-2.632286072,-2.004214764,-5.334967613,0.7174339890480042,0.6673305034637451,-0.199896634,-0.851573944,0.14729052782058716,0.5075595378875732,0.7668209362877666,-0.361154499,0.5192486036432884,-0.109243279
1710359164662599700,3.026599609,-2.236770868,-2.061082363,-5.270970345,0.6767557859420776,0.7092714905738831,-0.19732146,-0.813016713,0.22546672821044922,0.43189480900764465,0.7644260587507133,-0.385208684,0.5029448686001219,-0.11963974
1710359164672618500,3.036618408203125,-2.114847898,-2.21374774,-5.138634682,0.634563148,0.7477001547813416,-0.19563745,-0.717220008,0.24558591842651367,0.41978904604911804,0.7621884203942396,-0.407670215,0.485784184,-0.12995186
1710359164682637600,3.046637451171875,-2.252631903,-2.273329496,-5.022158623,0.591209888,0.7831652164459229,-0.192673326,-0.667076647,0.3363568186759949,0.5068212151527405,0.7595477247915499,-0.429669044,0.4680254824466717,-0.139369443
1710359164692655600,3.056655517578125,-2.224575281,-2.26212883,-4.831588268,0.5473712086677551,0.8155717849731445,-0.187689289,-0.729698539,0.4548901319503784,0.45947882533073425,0.7562777274349931,-0.451141966,0.4501402935388724,-0.147947813
1710359164702674400,3.066674316,-2.429320812,-2.179314852,-4.595595837,0.5040504336357117,0.8446720242500305,-0.18017298,-0.822928607,0.5543910264968872,0.3975954055786133,0.7522681422790162,-0.472000117,0.432584559,-0.155496478
1710359164712693500,3.076693603515625,-2.358439445,-2.073306322,-4.429600716,0.4616221487522125,0.8707320094108582,-0.169501707,-0.942624927,0.7080491185188293,0.402793288,0.7473112053154191,-0.492413283,0.4156661020812021,-0.162101347
1710359164722711600,3.086711669921875,-2.023332596,-2.023182631,-4.344297886,0.4194764792919159,0.8936881422996521,-0.159251779,-1.032361031,0.7049599289894104,0.28918033838272095,0.742362735,-0.511188038,0.39882440176890743,-0.168889199
1710359164732730400,3.096730469,-1.98931253,-2.027685165,-4.237452984,0.3774963617324829,0.9138941764831543,-0.149311393,-0.986276269,0.5696262717247009,0.1740763932466507,0.7374355672282277,-0.528699149,0.38186582734960445,-0.175625904
1710359164742749400,3.106749512,-1.860787272,-2.036491156,-4.196700573,0.33562347292900085,0.9317322969436646,-0.138678044,-0.888006926,0.4509427547454834,0.022009328,0.7322615580612212,-0.545528285,0.3647737182359025,-0.182021781
1710359164752768500,3.116768555,-1.971900582,-2.0023911,-4.182476521,0.2934894561767578,0.9474632143974304,-0.127190888,-0.801820755,0.3002174496650696,0.063927948,0.726720069,-0.56180675,0.3475309062956741,-0.188344034
1710359164762786300,3.126786376953125,-2.013745546,-1.986306429,-4.226669312,0.2509458363056183,0.9613409042358398,-0.113357753,-0.763229132,0.26477909088134766,0.17677325010299683,0.7203251171499403,-0.578144442,0.33025767251916105,-0.194449628
1710359164772805400,3.136805419921875,-1.870545983,-1.984627247,-4.346149921,0.20731420814990997,0.9732346534729004,-0.099171318,-0.763741255,0.20375192165374756,0.10879959166049957,0.7136053078203314,-0.593956645,0.31245774777427177,-0.200880656
1710359164782824400,3.146824462890625,-2.023074865,-1.911186814,-4.454661846,0.16233275830745697,0.9831669330596924,-0.083850361,-0.745691538,0.084368467,0.06119103,0.7062398806035266,-0.60952218,0.29420661406088094,-0.207726761
1710359164792843500,3.156843505859375,-1.990717649,-1.77684474,-4.473881721,0.11673043668270111,0.9909515380859375,-0.066251315,-0.736252487,0.068603635,-0.008760937,0.6978386412992903,-0.625038646,0.2760453470745846,-0.214818541
1710359164802861600,3.166861572265625,-1.83985889,-1.62467885,-4.378806114,0.071614049,0.9962270259857178,-0.049023591,-0.768788099,0.042545617,-0.130709708,0.6892704898444248,-0.639403977,0.2581680807620488,-0.222301736
1710359164812880600,3.176880615234375,-1.901619792,-1.51163578,-4.278089523,0.027786975726485252,0.9991328716278076,-0.031005152,-0.856278181,0.1383029818534851,-0.099076033,0.6802455993843254,-0.653025563,0.24094613027937972,-0.229713913
1710359164822899500,3.186899414,-1.764704227,-1.458606958,-4.296726704,-0.015438487,0.9998000860214233,-0.012705727,-0.960376322,0.34485018253326416,-0.058476567,0.6708953215912261,-0.665961307,0.22392560108269982,-0.237175764
1710359164832918500,3.196918457,-1.71381247,-1.455102205,-4.290677547,-0.058541052,0.9982717037200928,0.005139865,-0.934699297,0.4054452180862427,-0.035291195,0.6614554436865339,-0.678126225,0.20667548369527863,-0.244758487
1710359164842936600,3.206936523,-1.927410603,-1.442112684,-4.162534714,-0.100599445,0.9946291446685791,0.024342204,-0.748430073,0.4105679392814636,-0.00406325,0.651432181,-0.690074686,0.18965239232492323,-0.251922579
1710359164852955600,3.216955566,-2.286484241,-1.414095998,-3.980885267,-0.140567616,0.9889558553695679,0.046979491,-0.553539395,0.41875898838043213,0.020769473165273666,0.6401837843346869,-0.702408984,0.17352626604158047,-0.258214965
1710359164862974500,3.226974365234375,-2.353604317,-1.369714737,-3.821989775,-0.178248376,0.9813175797462463,0.072409809,-0.458745003,0.4498499631881714,0.095314734,0.6279043466161799,-0.714944545,0.15830098002724427,-0.263687673
1710359164872993500,3.236993652,-2.404197216,-1.29751873,-3.565350771,-0.213301688,0.9720427393913269,0.098160453,-0.440018624,0.48846757411956787,0.2589714527130127,0.6154401993639288,-0.726880718,0.14396058041100346,-0.268613497
1710359164883011600,3.247011474609375,-2.323517799,-1.283264637,-3.355347872,-0.245308787,0.9614465236663818,0.1242750883102417,-0.460730642,0.6072332859039307,0.2183152437210083,0.6028747478359424,-0.738297037,0.13059490241396224,-0.272772006
1710359164893030400,3.257030517578125,-2.201338768,-1.238515496,-3.200266361,-0.274970621,0.94982487,0.14907598495483398,-0.463737816,0.719745934,0.04908976,0.590782611,-0.748788794,0.11770020589380444,-0.27647388
1710359164903049500,3.267049560546875,-2.114419699,-1.170784473,-2.955129147,-0.302224189,0.9374057054519653,0.173007071,-0.408362389,0.7236661911010742,-0.055667028,0.5789898164800218,-0.758530434,0.10552306425754937,-0.279763162
1710359164913068500,3.277068603515625,-2.071111679,-1.132651448,-2.618952036,-0.326081187,0.9247744679450989,0.1961207538843155,-0.34294042,0.6526029109954834,-0.155013561,0.5676606749141514,-0.767547144,0.094507982,-0.282313688
1710359164923086300,3.287086426,-2.231790781,-1.052069068,-2.381182909,-0.346756458,0.9119169116020203,0.2194717824459076,-0.334701121,0.5977573394775391,-0.210820049,0.556351581,-0.776236595,0.084809417,-0.284142848
1710359164933105400,3.297105469,-2.256541014,-0.957794011,-2.185344696,-0.365143389,0.8985030055046082,0.2436448335647583,-0.379134595,0.6556809544563293,-0.21495831,0.544613405,-0.7848506,0.076367235,-0.28561144
1710359164943124500,3.307124512,-1.814089894,-0.92367655,-1.975933194,-0.381350279,0.8854739665985107,0.26553359627723694,-0.390866607,0.6962522268295288,-0.306778044,0.5338506999995861,-0.7925078,0.068543361,-0.286769486
1710359164953143600,3.317143555,-1.300476909,-0.856748343,-1.801974654,-0.395493686,0.8738656640052795,0.28274285793304443,-0.332869321,0.6633657813072205,-0.397992522,0.52522007,-0.79853666,0.060914936,-0.287701998
1710359164963161300,3.327161376953125,-0.743235767,-0.738374293,-1.698101521,-0.408397257,0.863880455,0.2948257029056549,-0.27737847,0.6516987681388855,-0.481395036,0.5188428110624008,-0.802853835,0.053278283110514926,-0.288771978
1710359164973180400,3.337180419921875,-0.422685444,-0.592814684,-1.590030551,-0.420571238,0.8553453683853149,0.30249708890914917,-0.212210834,0.5930038094520569,-0.489691943,0.5143270981620461,-0.805701531,0.045755707,-0.290205497
1710359164983199500,3.347199462890625,-0.192288175,-0.460518181,-1.489251375,-0.432095647,0.8478289246559143,0.30737581849098206,-0.129366815,0.529978871,-0.46487698,0.5109469721349679,-0.807585949,0.038637287786290796,-0.291968215
1710359164993218300,3.357218262,0.003596647,-0.367292404,-1.38562274,-0.442992896,0.8412337899208069,0.309972882,-0.06172213,0.5171952843666077,-0.484243602,0.5085330203178221,-0.808683735,0.031891328,-0.293952051
1710359165003236600,3.367236572265625,0.18394458293914795,-0.283550352,-1.23255229,-0.453015268,0.835621178,0.31066763401031494,-0.011706382,0.574565589,-0.46684137,0.5070084532781892,-0.809121845,0.025605722,-0.295987498
1710359165013255700,3.377255615234375,0.3012360632419586,-0.211691886,-1.006666183,-0.461617231,0.8312454223632812,0.3097425401210785,0.018471509218215942,0.6699294447898865,-0.390720993,0.5063632037499786,-0.8089922,0.020072136439934187,-0.297867411
1710359165023274500,3.387274414,0.3678060472011566,-0.15947929,-0.79819423,-0.468536526,0.8281043171882629,0.30776098370552063,0.025924802,0.7393853664398193,-0.292868495,0.5064175899717774,-0.808481376,0.015438994266149506,-0.299434031
1710359165033293600,3.397293457,0.3854532241821289,-0.122669816,-0.620828211,-0.473969996,0.8259170651435852,0.30530914664268494,0.026048243045806885,0.7402451038360596,-0.203273654,0.5068830482594137,-0.807786283,0.011657660794863118,-0.300691009
1710359165043311600,3.407311523,0.36391329765319824,-0.112593211,-0.464562714,-0.478094608,0.8244873881340027,0.30273088812828064,0.048971683,0.66835618,-0.169308096,0.5076050447043747,-0.80702635,0.008597232,-0.301615054
1710359165053330400,3.417330322265625,0.28240272402763367,-0.113776825,-0.32913512,-0.481019974,0.8235710263252258,0.30058401823043823,0.10345649719238281,0.574286699,-0.101334691,0.5083277156055892,-0.80638288,0.006217366,-0.302177112
1710359165063349500,3.427349609,0.20684005320072174,-0.125506178,-0.208250493,-0.482870787,0.8229925632476807,0.29919666051864624,0.15065652132034302,0.4804283380508423,-0.033327639,0.5088902535768294,-0.805964281,0.004461064,-0.302377649
1710359165073368600,3.437368652,0.1907348334789276,-0.092393883,-0.118212216,-0.483860165,0.8228102326393127,0.2980988323688507,0.16321194171905518,0.36351490020751953,-0.022219896,0.5094544865296543,-0.805629595,0.003219949,-0.302335584
1710359165083386400,3.447386474609375,0.12350893765687943,-0.051505838,-0.056220219,-0.484358519,0.8228678107261658,0.2971285581588745,0.14976376295089722,0.22429710626602173,0.0461483,0.5099640823581354,-0.805331127,0.002461186,-0.302278609
1710359165093405400,3.457405517578125,0.066133529,-0.06828545,-0.033456314,-0.484535962,0.822933018,0.29665854573249817,0.12770918011665344,0.10280245542526245,0.086352348,0.5102704564992059,-0.805186493,0.001997807,-0.302150387
1710359165103424500,3.467424560546875,-0.018678298,-0.07426931,-0.000181184,-0.484484047,0.8229039907455444,0.2968240976333618,0.12303376197814941,0.036501706,0.11681118607521057,0.5103371825116028,-0.805238601,0.001685278,-0.301900679
1710359165113443600,3.477443603515625,-0.034266047,-0.052237839,0.057660811,-0.484042794,0.8229487538337708,0.2974190413951874,0.11282697319984436,0.03587693,0.11113500595092773,0.510246002,-0.805423282,0.00169245,-0.301561888
1710359165123461400,3.487461426,-0.007549481,-0.026461098,0.094534934,-0.483277768,0.8232583999633789,0.2978057265281677,0.088807553,0.037932395935058594,0.076416016,0.5102715268736847,-0.805542745,0.001937884,-0.301197844
1710359165133480400,3.497480469,-0.03838915,-0.01217015,0.1380786895751953,-0.482270539,0.8237608075141907,0.2980495095252991,0.061250001192092896,0.009842157,0.049347281,0.510369825,-0.805617197,0.002385688,-0.300828797
1710359165143499500,3.507499512,-0.09422525,-0.017441876,0.18424297869205475,-0.480894208,0.8243329524993896,0.2986903488636017,0.039701581,-0.016044378,0.029709190130233765,0.5103351467908652,-0.805813603,0.003101234,-0.300354533
1710359165153518300,3.517518310546875,-0.105082698,-0.008768814,0.22579655051231384,-0.479142487,0.8250131607055664,0.29962632060050964,0.012986451387405396,-0.035645485,0.003626823,0.510224871,-0.806099717,0.00405142,-0.299762388
1710359165163536600,3.527536621,-0.116063438,-0.007340562,0.2507154941558838,-0.477145463,0.8258296251296997,0.30056214332580566,-0.016537398,-0.046563268,-0.011865854,0.5101418196468694,-0.806383527,0.005164651,-0.299122481
1710359165173555700,3.537555664,-0.061214838,-0.032867599,0.26347362995147705,-0.474963814,0.8267562985420227,0.3014685809612274,-0.034969598,-0.035817027,-0.016648084,0.5101300322739565,-0.806656469,0.006295411,-0.298384005
1710359165183574500,3.547574462890625,0.030322267,-0.046060633,0.2822372019290924,-0.472563773,0.8280235528945923,0.3017632067203522,-0.029603124,-0.03523767,-0.027272761,0.5104940531028833,-0.806739179,0.007314684,-0.29751373
1710359165193593600,3.557593505859375,0.065323927,-0.058355756,0.2848185896873474,-0.470034271,0.8295066356658936,0.3016391694545746,-0.012891054,-0.038201213,-0.024081886,0.5111028749612706,-0.80669157,0.0082643,-0.296570655
1710359165203611600,3.567611572265625,0.087260917,-0.055627614,0.26990488171577454,-0.467547387,0.8310547471046448,0.3012426793575287,-0.006009042,-0.026046872,-0.011112154,0.5118436175607083,-0.806559503,0.009116344,-0.295625851
1710359165213630500,3.577630371,0.078189924,-0.066331923,0.24622778594493866,-0.465213746,0.8325027823448181,0.3008579611778259,-0.002666563,-0.0192855,0.002883464,0.5125508349108555,-0.806431144,0.009888704,-0.294724906
1710359165223649500,3.587649414,-0.014229488,-0.078573942,0.2581491768360138,-0.462905288,0.8337830901145935,0.3008727729320526,0.017409712076187134,0.02774334,0.022552579641342163,0.5130870606722396,-0.806426226,0.010636190152184203,-0.293777569
1710359165233668600,3.597668701171875,0.045470592,-0.149727479,0.30695879459381104,-0.460263491,0.8350043296813965,0.30153796076774597,0.04293564,0.11079639196395874,0.034307927,0.5134298034250758,-0.806620851,0.011479404,-0.292610357
1710359165243686400,3.607686279296875,0.10667349398136139,-0.205184087,0.3671976327896118,-0.457083315,0.8367541432380676,0.3015249967575073,0.055563509464263916,0.16091126203536987,0.041736721992492676,0.5142927230401928,-0.806606581,0.012178497,-0.291102218
1710359165253705500,3.617705566,-0.005614162,-0.254138023,0.4525756239891052,-0.45311743,0.8386966586112976,0.3021135926246643,0.068260252,0.1681087613105774,0.073572993,0.5150809784683313,-0.80677423,0.013120050967332401,-0.289196894
1710359165263724500,3.627724609,-0.080568299,-0.322946906,0.5379656553268433,-0.448063761,0.8408014178276062,0.30379536747932434,0.071492165,0.20738577842712402,0.096122116,0.5156357574366255,-0.807272576,0.014445289801449228,-0.286743783
1710359165273743400,3.637743408203125,-0.117648825,-0.390004635,0.6368410587310791,-0.44201088,0.8430994153022766,0.3062841296195984,0.085351855,0.22658759355545044,0.10590150952339172,0.5160758771478956,-0.808012709,0.016047831,-0.283766986
1710359165283761400,3.647761474609375,-0.089680836,-0.464691371,0.7349870800971985,-0.434865296,0.8457757830619812,0.30912041664123535,0.1115010678768158,0.260516882,0.094611853,0.5166278381134469,-0.808851183,0.017887628234368333,-0.280241783
1710359165293780500,3.657780517578125,-0.088023551,-0.552728176,0.8224799036979675,-0.426668435,0.8488984704017639,0.31197047233581543,0.15226957201957703,0.31697994470596313,0.1513473093509674,0.517447615,-0.809686107,0.019840511,-0.276157201
1710359165303799300,3.667799316,-0.10474287,-0.671199679,0.939294696,-0.417234778,0.8522768616676331,0.3154986798763275,0.19660797715187073,0.40930455923080444,0.25308963656425476,0.5182738644814477,-0.810719686,0.021975695877689244,-0.271372245
1710359165313818400,3.677818359,-0.036434125,-0.763437271,1.0658276081085205,-0.40627408,0.8561955690383911,0.31917113065719604,0.22353491187095642,0.48613524436950684,0.275799423,0.5193963972373713,-0.811785001,0.024303783178299412,-0.265785082
1710359165323836700,3.687836669921875,0.011541655287146568,-0.844611764,1.1842494010925293,-0.393897295,0.8606796860694885,0.3226066827774048,0.23770835995674133,0.4992445111274719,0.2459508776664734,0.5209076763366836,-0.812762546,0.026840046805401377,-0.259522082
1710359165333855500,3.697855469,0.036022231,-0.968336344,1.3265495300292969,-0.380083978,0.8656322956085205,0.32590973377227783,0.25873076915740967,0.5191640257835388,0.23915377259254456,0.5227469393452016,-0.813683622,0.029560735902873968,-0.252548748
1710359165343874600,3.707874512,0.020358849316835403,-1.146191239,1.4808235168457031,-0.364387363,0.870959461,0.32962310314178467,0.2922590970993042,0.5573546886444092,0.27773770689964294,0.5247679421551568,-0.814712315,0.032486952,-0.244554788
1710359165353893600,3.717893555,0.056220178,-1.328721642,1.6344552040100098,-0.346602112,0.8766248822212219,0.3337598741054535,0.3134295344352722,0.6009904146194458,0.34171614050865173,0.526985755,-0.815852684,0.03555752,-0.23538486
1710359165363911400,3.727911376953125,0.14962388575077057,-1.500709653,1.7762807607650757,-0.326785892,0.8827208280563354,0.33766114711761475,0.3122595250606537,0.6022340655326843,0.36790525913238525,0.5296251206497459,-0.816905352,0.038681008,-0.225092639
1710359165373930500,3.737930419921875,0.32608386874198914,-1.669858336,1.8972880840301514,-0.305070907,0.8893271088600159,0.34063082933425903,0.2922992706298828,0.587128758,0.3878695070743561,0.5329123876179566,-0.817663592,0.041733252,-0.213750035
1710359165383949600,3.747949462890625,0.43365639448165894,-1.856945157,2.0390779972076416,-0.281461656,0.8964361548423767,0.3423179090023041,0.265806109,0.6032891869544983,0.45797502994537354,0.5369330532975481,-0.818024387,0.044666119,-0.201355295
1710359165393968600,3.75796875,0.6739675998687744,-2.08313179,2.2368741035461426,-0.255435318,0.9040019512176514,0.342831016,0.23703324794769287,0.6802265048027039,0.5657382011413574,0.5416456778792401,-0.81801754,0.047569082,-0.187628316
1710359165403986400,3.767986328,1.0860915184020996,-2.245594978,2.434005022,-0.226711869,0.9126859307289124,0.3400089740753174,0.20107708871364594,0.7026399970054626,0.5863826274871826,0.5479163446142375,-0.816982387,0.05044075,-0.172578068
1710359165414005500,3.778005615234375,1.3017542362213135,-2.396867752,2.5604310035705566,-0.1959102,0.9220417141914368,0.3338538706302643,0.15686294436454773,0.6354686617851257,0.5756003856658936,0.5554987781287996,-0.814917508,0.053257836281009455,-0.156506348
1710359165424024600,3.788024658203125,1.4650554656982422,-2.594945908,2.6808969974517822,-0.163327083,0.9313384890556335,0.32547318935394287,0.12351691722869873,0.5758788585662842,0.5886198282241821,0.563771993,-0.812163133,0.055925339,-0.139371857
1710359165434043400,3.798043457,1.5050504207611084,-2.835399866,2.782515048980713,-0.128979102,0.9401427507400513,0.3154296278953552,0.11083640158176422,0.48208314180374146,0.5996856689453125,0.5724023231667525,-0.808896092,0.058326011,-0.12099885
1710359165444061400,3.808061523,1.4899110794067383,-3.094798088,2.8951549530029297,-0.092933558,0.9479341506958008,0.30460554361343384,0.099281207,0.43291008472442627,0.6337641477584839,0.580900043,-0.80539141,0.060394065,-0.101254738
1710359165454080500,3.818080566,1.6017193794250488,-3.298550367,3.0397684574127197,-0.055075645,0.9547390937805176,0.29230085015296936,0.074332237,0.43698447942733765,0.681957483,0.5894279619420109,-0.801420172,0.062258547,-0.080151153
1710359165464099300,3.828099365234375,1.760398030281067,-3.498980284,3.1907169818878174,-0.015494677,0.9606346487998962,0.27738285064697266,0.040870025753974915,0.44814836978912354,0.7377538681030273,0.5983025415397247,-0.796612492,0.064030961,-0.057816348
1710359165474118400,3.838118408203125,1.8496512174606323,-3.749305964,3.326653003692627,0.025696570053696632,0.9652915000915527,0.25990813970565796,0.013243839144706726,0.4970804452896118,0.8471933603286743,0.6073544908821112,-0.790977898,0.065635616,-0.034154938
1710359165484137500,3.848137451171875,2.0147056579589844,-4.000216007,3.471329927444458,0.068323337,0.9685510993003845,0.2392505407333374,-0.013544291,0.5370794534683228,0.9696880578994751,0.6166783117231268,-0.784309868,0.066957436,-0.009090195
1710359165494155500,3.858155517578125,2.0659496784210205,-4.238276958,3.6387195587158203,0.1122327670454979,0.9699714183807373,0.2157767117023468,-0.051350199,0.521270216,1.043058156967163,0.6259465287392371,-0.776695524,0.068061893,0.017398422058664074
1710359165504174600,3.868174560546875,2.198739528656006,-4.439147472,3.8225626945495605,0.1573018878698349,0.9692673683166504,0.18914836645126343,-0.103270516,0.5119948983192444,1.0836788415908813,0.6351212777311629,-0.767981307,0.069129581,0.045242342925846134
1710359165514193400,3.878193359,2.1924407482147217,-4.636039257,3.9791364669799805,0.2031017392873764,0.9660598039627075,0.159620002,-0.167808145,0.4563799500465393,1.1249868869781494,0.6439442745378543,-0.758212153,0.070173604,0.074336689
1710359165524212500,3.888212402,2.151093006134033,-4.794225693,4.068828105926514,0.24877811968326569,0.9600722193717957,0.12794886529445648,-0.237257749,0.3800920248031616,1.1404074430465698,0.6520089096176556,-0.747617479,0.071010824,0.10445097038945618
1710359165534230500,3.898230469,2.105623483657837,-4.855532169,4.1190900802612305,0.2933894097805023,0.9513152241706848,0.094456851,-0.295113653,0.26609206199645996,1.0881298780441284,0.6591828113005168,-0.736270724,0.071650876,0.13509117737996176
1710359165544249600,3.908249512,2.051790952682495,-4.895758629,4.155816078186035,0.3363587558269501,0.9398629665374756,0.059334986,-0.329843313,0.1708396077156067,1.0171115398406982,0.6654388699064608,-0.724194076,0.072183325,0.16590275504957455
1710359165554268700,3.918268555,1.8808226585388184,-4.972313404,4.2045440673828125,0.37746888399124146,0.9257300496101379,0.023266887292265892,-0.3442505,0.13721251487731934,0.9985989332199097,0.6705171724677845,-0.711601737,0.072501115,0.19690958663737745
1710359165564287500,3.928287598,1.7189387083053589,-5.078329563,4.241333961486816,0.4165635108947754,0.9090099930763245,-0.013265331,-0.361814946,0.1439991593360901,1.0289818048477173,0.6741941397306549,-0.698658962,0.072408487,0.22824352270878281
1710359165574305500,3.938305419921875,1.6016587018966675,-5.142246723,4.246232032775879,0.4531952738761902,0.8899790048599243,-0.050513513,-0.394418389,0.11978673934936523,1.0438759326934814,0.6766047529978548,-0.685260182,0.071845154,0.2597361800394504
1710359165584324600,3.948324707,1.538685917854309,-5.16859436,4.209213733673096,0.4869019687175751,0.8689560890197754,-0.088553786,-0.44391799,0.084138393,1.045890212059021,0.6779101842018713,-0.671341041,0.070882383,0.29105788283856204
1710359165594343400,3.958343505859375,1.6306533813476562,-5.152923107,4.124842643737793,0.5171276926994324,0.8462642431259155,-0.128124341,-0.496711433,0.050387979,1.0252647399902344,0.6785829673733189,-0.656574749,0.069623456,0.32184996133484345
1710359165604362500,3.968362548828125,1.614536166191101,-5.079977036,4.066476345062256,0.5437420606613159,0.8220611214637756,-0.168996781,-0.537928581,0.019415259,0.9859370589256287,0.6787587233044404,-0.640965382,0.068300726,0.35183073784969177
1710359165614380500,3.978380615234375,1.470379114151001,-5.050755024,4.006973743438721,0.5668962597846985,0.7966585755348206,-0.209675699,-0.562272847,0.046450674533843994,1.033650279045105,0.6779482250110207,-0.625066369,0.066739657,0.38108288567524695
1710359165624399400,3.988399414,1.3713247776031494,-5.032613754,3.942469358444214,0.5864901542663574,0.770421565,-0.249960184,-0.575152874,0.073938966,1.055929422,0.676124306,-0.608957606,0.064734377,0.40967809991079673
1710359165634418400,3.998418457,1.1858474016189575,-5.057672977,3.8555498123168945,0.6024639010429382,0.7436878085136414,-0.289768755,-0.586899936,0.04462707,1.0380749702453613,0.6733206995288464,-0.592663652,0.062172499,0.4376342469739323
1710359165644437500,4.0084375,0.935895562,-5.112823009,3.704454183578491,0.6144135594367981,0.717341423,-0.328507632,-0.610537827,0.020741463,1.039078950881958,0.6693946715044552,-0.576471594,0.058537842,0.4649350890181393
1710359165654455300,4.018455322265625,0.7944348454475403,-5.091822624,3.553663492202759,0.6222429871559143,0.6918834447860718,-0.366211802,-0.65219599,0.009624183,0.9926460981369019,0.6645882486765455,-0.560351549,0.053853942,0.4913536772682763
1710359165664474400,4.028474365234375,0.8060811161994934,-5.034383297,3.4381496906280518,0.6265307068824768,0.666938066,-0.403302819,-0.696888983,-0.011801898,0.897596002,0.6592582922489525,-0.544033463,0.048746148,0.5167495528837359
1710359165674493400,4.038493408203125,0.7510921359062195,-4.983460903,3.2761454582214355,0.6274252533912659,0.6425023674964905,-0.439918667,-0.747878134,-0.003174305,0.8615647554397583,0.6536131028462404,-0.527407933,0.043376751593651175,0.5410631781563316
1710359165684512500,4.048512451171875,0.673422635,-4.888091087,3.070997714996338,0.62485379,0.6193200945854187,-0.475395024,-0.812247038,0.052768588066101074,0.8671338558197021,0.647669607,-0.510779737,0.037504073919272185,0.564111369
1710359165694530600,4.058530517578125,0.6064308285713196,-4.736760616,2.900792121887207,0.6193044185638428,0.597581685,-0.509272218,-0.860622227,0.095792949,0.8340861201286316,0.641506215,-0.494351773,0.031308274,0.5857524293325679
1710359165704549600,4.068549560546875,0.519728959,-4.644616127,2.839620590209961,0.611501157,0.5770267248153687,-0.541393101,-0.861104429,0.096358895,0.8066061735153198,0.6349687087514309,-0.478205377,0.024961080299505962,0.6062271146282006
1710359165714568700,4.078568603515625,0.40954360365867615,-4.612014294,2.7945573329925537,0.6017783284187317,0.5572446584701538,-0.572137356,-0.838060796,0.10098898410797119,0.8176513314247131,0.6278506626893247,-0.462159285,0.018442102,0.6259969178169406
1710359165724588000,4.088588134765625,0.37198585271835327,-4.580269814,2.6360793113708496,0.5896899700164795,0.5387371182441711,-0.60168767,-0.841078579,0.13077276945114136,0.7845032215118408,0.6204052283460036,-0.446121343,0.011485570609423963,0.6449350279963989
1710359165734605800,4.098605712890625,0.3180619180202484,-4.479053497,2.475571393966675,0.5753113627433777,0.5217072367668152,-0.62995106,-0.881494284,0.13420706987380981,0.7128826379776001,0.6129773195369079,-0.430123905,0.004228716,0.6627475932784335
1710359165744625000,4.108625,0.23917615413665771,-4.27134037,2.3543238639831543,0.5595833659172058,0.5061134696006775,-0.656289279,-0.915540516,0.126042902,0.6415950655937195,0.6054656597526535,-0.414543275,-0.00303957,0.6793791309334974
1710359165754644000,4.118644043,0.067209713,-4.0816679,2.2195169925689697,0.5431774854660034,0.4924481213092804,-0.680039048,-0.926768243,0.12643316388130188,0.6168676614761353,0.5977443012802302,-0.399840507,-0.010394164,0.6947815396116134
1710359165764662800,4.128662841796875,-0.088799067,-3.985373974,2.0612897872924805,0.5261415243148804,0.48105302453041077,-0.701258302,-0.904620528,0.099940687,0.6180521249771118,0.5898114134400799,-0.38606192,-0.018084457,0.7090499006111219
1710359165774680800,4.138680908203125,-0.26706177,-3.992192984,1.881074309,0.5073108077049255,0.4720880091190338,-0.720949888,-0.854326189,-0.016796201,0.6561915874481201,0.5819387947555512,-0.37258128,-0.026612994,0.7223726622574447
1710359165784700000,4.148699951171875,-0.496867508,-4.060986519,1.7158666849136353,0.4863754212856293,0.4659227132797241,-0.739158332,-0.809449792,-0.17110765,0.6978375315666199,0.57403068,-0.359304762,-0.036344608,0.7348932149836681
1710359165794718700,4.15871875,-0.782884061,-4.09305048,1.4861778020858765,0.46331289410591125,0.46304652094841003,-0.755598485,-0.777476132,-0.276919782,0.7366165518760681,0.5660725831034935,-0.346327284,-0.04752007,0.746566252
1710359165804737800,4.168737793,-0.938615084,-4.077226162,1.1678112745285034,0.43828845024108887,0.463761568,-0.769953549,-0.770609617,-0.297364444,0.7017467617988586,0.5584666006142297,-0.333789611,-0.060064387,0.7570282961170363
1710359165814755800,4.178755859,-0.925529957,-4.03703928,0.8621652722358704,0.41146498918533325,0.46669358015060425,-0.782875299,-0.772411704,-0.283465981,0.6731035709381104,0.5517124246643674,-0.321246253,-0.07323385,0.7661926694887855
1710359165824774700,4.188774658203125,-0.90871501,-3.950037479,0.5628246665000916,0.38325533270835876,0.4711053967475891,-0.794465303,-0.762390494,-0.292440176,0.6313488483428955,0.5459153016885314,-0.308646931,-0.086628111,0.7740860354042032
1710359165834793700,4.198793701171875,-0.94173044,-3.834036589,0.2736104130744934,0.3540494441986084,0.47691529989242554,-0.804487944,-0.755386114,-0.324769884,0.58805728,0.541073913,-0.296178555,-0.100171342,0.7806939864092983
1710359165844812800,4.208812744140625,-1.159178972,-3.696157694,-0.026337152,0.32417306303977966,0.48488178849220276,-0.812281668,-0.750854611,-0.40384233,0.5551558136940002,0.5370526078083181,-0.284277232,-0.114217455,0.7859487011556155
1710359165854831900,4.218831787109375,-1.433662653,-3.616104841,-0.353212208,0.2934104800224304,0.49612388014793396,-0.817172825,-0.743270159,-0.486571819,0.5879247784614563,0.533758226,-0.273242054,-0.129430942,0.7897396028707125
1710359165864850000,4.228849853515625,-1.720902443,-3.626535654,-0.613317311,0.2612943649291992,0.5103228092193604,-0.81932646,-0.726550102,-0.588768244,0.6961880326271057,0.5310943588963761,-0.262751356,-0.145940054,0.7922133181355947
1710359165874869000,4.238868896484375,-2.216917038,-3.58635354,-0.862031519,0.2278549075126648,0.5281867384910583,-0.817985892,-0.709910631,-0.680286288,0.7447437047958374,0.5286785235703808,-0.253039532,-0.164249978,0.7934052461036174
1710359165884887800,4.248887695,-2.768264055,-3.51000452,-1.189273238,0.19333258271217346,0.5507281422615051,-0.81198585,-0.723087251,-0.657539666,0.769459605,0.5265255027569912,-0.244634778,-0.184826674,0.7929463278529258
1710359165894907000,4.258906982421875,-3.10238862,-3.405234098,-1.537493467,0.15768477320671082,0.577039897,-0.801349163,-0.758667469,-0.558958232,0.7785983085632324,0.5249741375122328,-0.237377305,-0.207309986,0.7906179899734048
1710359165904925000,4.268925048828125,-3.010312557,-3.340267897,-1.861621737,0.12077159434556961,0.6039212942123413,-0.787840962,-0.810301065,-0.465569794,0.7247306108474731,0.5243848213414329,-0.230278609,-0.230328668,0.7867281099755452
1710359165914944000,4.278944091796875,-2.73243165,-3.232652426,-2.180063725,0.082582496,0.6284509301185608,-0.773453057,-0.883821547,-0.443438113,0.6767886281013489,0.5250839827838865,-0.22247109,-0.252547222,0.7816734700692464
1710359165924962800,4.288962891,-2.542983055,-3.035764933,-2.449738503,0.043564699590206146,0.6500565409660339,-0.758636057,-0.987244546,-0.4676072,0.6406246423721313,0.5271300777960288,-0.214058036,-0.273607617,0.7755333876751713
1710359165934982000,4.298981934,-2.75039649,-2.734308481,-2.622052431,0.005072762,0.6703642010688782,-0.742014945,-1.109626055,-0.516753912,0.5477400422096252,0.5300772058696814,-0.206221713,-0.294049562,0.7681312956587162
1710359165945000000,4.309,-3.182189703,-2.403612614,-2.827023268,-0.032316558,0.6917235255241394,-0.721439004,-1.238206506,-0.558178544,0.3888431787490845,0.5335527147012943,-0.200148548,-0.314993732,0.7589736851488068
1710359165955018800,4.319018798828125,-3.539539337,-2.075973272,-3.073027134,-0.069079489,0.7141862511634827,-0.696538627,-1.347989082,-0.605955601,0.24573302268981934,0.5376892575755657,-0.195901643,-0.336679726,0.7477697735410447
1710359165965037800,4.329037841796875,-3.735260248,-1.732123733,-3.355370045,-0.10544087,0.7362897992134094,-0.668400764,-1.418866396,-0.708732426,0.1431322693824768,0.5427656118010469,-0.193105985,-0.358482508,0.7345786969745353
1710359165975057000,4.339056884765625,-3.886292219,-1.345275283,-3.592867374,-0.141542301,0.7568811774253845,-0.638041198,-1.471830487,-0.852034986,0.030787289142608643,0.5489232330195982,-0.19146507,-0.379895398,0.7195164077521701
1710359165985074700,4.349074707,-4.179290295,-1.006411433,-3.805526733,-0.177196592,0.776068926,-0.605242312,-1.515354156,-0.977576554,-0.076215088,0.5559529919726096,-0.191231794,-0.401010274,0.7025221227067138
1710359165995093800,4.35909375,-4.543245792,-0.806120038,-4.042491436,-0.213397145,0.7939761877059937,-0.569265664,-1.52305305,-1.021301627,-0.095758021,0.5635464118721905,-0.192194924,-0.422407728,0.6834092338464338
1710359166005112800,4.369112793,-4.983066559,-0.542556047,-4.220534325,-0.250403464,0.8106092214584351,-0.529349387,-1.512627602,-0.99636972,-0.029473186,0.5713819882765137,-0.194467833,-0.444418232,0.6619647033693802
1710359166015132000,4.379131836,-5.129986286,-0.188923672,-4.418598652,-0.287676364,0.8248559236526489,-0.486677378,-1.572461605,-0.919109523,-0.021089286,0.5796189075111312,-0.198085191,-0.466287001,0.638263667
1710359166025149700,4.389149658203125,-5.138607502,0.13525015115737915,-4.532694817,-0.325104266,0.8349531292915344,-0.444027692,-1.680495739,-0.839698553,-0.031909168,0.588471429,-0.202261613,-0.48690492,0.6129561650072645
1710359166035168800,4.399168701171875,-5.297177792,0.49750396609306335,-4.688332558,-0.362462491,0.8412193655967712,-0.401211917,-1.691004395,-0.71351856,0.071332216,0.5977161792677471,-0.207266486,-0.506393768,0.5859534058003376
1710359166045187800,4.409187744140625,-5.222564697,0.8559492230415344,-4.806197643,-0.40005222,0.8431029319763184,-0.359354556,-1.660982966,-0.52483511,0.13386023044586182,0.6075578557569505,-0.212818905,-0.524433818,0.5572708365882335
1710359166055206700,4.419206543,-5.332310677,1.1995768547058105,-4.75206852,-0.436974704,0.8408747911453247,-0.319347262,-1.673819423,-0.450326085,0.09923929,0.6176209527067182,-0.218936747,-0.540733824,0.5274636957501729
1710359166065225700,4.429225830078125,-5.757396221,1.5986573696136475,-4.747445107,-0.472623736,0.8358537554740906,-0.279240608,-1.676927686,-0.443367243,0.1967211663722992,0.6274687808600473,-0.226778681,-0.555833721,0.49588629335949863
1710359166075244000,4.439244141,-6.337764263,2.0573530197143555,-4.641493797,-0.507193863,0.8283593654632568,-0.237855598,-1.70293498,-0.454320669,0.3019731044769287,0.6369031464054916,-0.236982293,-0.570010169,0.46182495905601767
1710359166085262800,4.449262939453125,-7.004263401,2.5957417488098145,-4.483919144,-0.539750636,0.8189243078231812,-0.19501844,-1.741987705,-0.542190969,0.37949723,0.6456098193732129,-0.250427735,-0.582903707,0.4250848699254412
1710359166095282000,4.459281982421875,-7.425246239,3.101583242416382,-4.3684659,-0.570925236,0.806819499,-0.15194343,-1.765927792,-0.602504313,0.45016127824783325,0.6536511668162233,-0.266689722,-0.594057972,0.3856318994795132
1710359166105301000,4.469301025390625,-7.631658077,3.5636489391326904,-4.151792526,-0.600705028,0.791701615,-0.111185156,-1.797396898,-0.608458817,0.4800816774368286,0.6610552159268415,-0.284819101,-0.602731701,0.34438151207482126
1710359166115318800,4.479318848,-7.822443485,4.0082573890686035,-3.945781708,-0.628982246,0.7739044427871704,-0.073846243,-1.814026117,-0.602243125,0.6304258704185486,0.6676752082673945,-0.304362166,-0.608638276,0.3018823423402971
1710359166125337900,4.489337891,-8.029870987,4.5122528076171875,-3.69591713,-0.655836284,0.7538062334060669,-0.040679667,-1.862596393,-0.524161518,0.8727414608001709,0.6735984,-0.325272852,-0.611439071,0.2580794249823597
1710359166135357000,4.499356934,-8.211029053,4.889073371887207,-3.338180304,-0.680958688,0.7322261929512024,-0.011842385,-1.93435204,-0.409792721,1.1011064052581787,0.6785520791762775,-0.347503398,-0.610999342,0.2132799896700238
1710359166145375700,4.509375732421875,-8.914567947,5.149881362915039,-2.844151974,-0.703346491,0.710688055,0.015045768581330776,-1.926872015,-0.307856023,1.3599847555160522,0.6814365647462602,-0.371937663,-0.607606171,0.16769430951289704
1710359166155393800,4.519393798828125,-9.619794846,5.568847656,-2.425251961,-0.723389328,0.6891695857048035,0.041869156,-1.860213518,-0.170675993,1.7457590103149414,0.681623064,-0.399507577,-0.601105875,0.12023040291340842
1710359166165412900,4.529412841796875,-10.17164612,5.965665817260742,-1.822182775,-0.74111253,0.66805923,0.066701904,-1.882926226,-0.114058435,1.8749332427978516,0.679374066,-0.429591046,-0.590595027,0.071413717
1710359166175431700,4.539431641,-10.97037697,6.204626083374023,-1.128752947,-0.755673409,0.6486464738845825,0.09064059,-1.892718434,-0.222331107,1.869884967803955,0.6739431946242055,-0.462510031,-0.575677658,0.021918061
1710359166185450800,4.549450684,-11.65037155,6.340616703033447,-0.333861947,-0.766930461,0.6312723755836487,0.11538202315568924,-1.829215288,-0.278061926,2.0791218280792236,0.6644816542774805,-0.49828754,-0.556237845,-0.027805989
1710359166195468800,4.55946875,-12.1640234,6.539364337921143,0.6041529178619385,-0.77439326,0.6169930696487427,0.14012353122234344,-1.857976675,-0.227390468,2.348264455795288,0.6512140811846941,-0.536201371,-0.531554191,-0.076540374
1710359166205487600,4.569487548828125,-12.54288864,6.640329837799072,1.689439296722412,-0.777577221,0.606892467,0.16448405385017395,-1.891627431,-0.088658333,2.707784652709961,0.6344684583758827,-0.575625723,-0.500896251,-0.123319243
1710359166215506700,4.579506591796875,-12.82798672,6.599173069000244,2.953212261199951,-0.775285542,0.602412999,0.18981830775737762,-1.783720255,0.13554781675338745,3.033188819885254,0.6142959342119575,-0.616116284,-0.464014952,-0.166527452
1710359166225525800,4.589525879,-12.50276661,6.531036376953125,3.9859728813171387,-0.767672181,0.6034155488014221,0.21579934656620026,-1.518064022,0.4236535429954529,3.3311519622802734,0.5915841048283035,-0.656130168,-0.421180333,-0.205252719
1710359166235544800,4.599544922,-11.35903263,6.325299263000488,4.953436374664307,-0.755524814,0.6099422574043274,0.23906634747982025,-1.244780302,0.8253452181816101,3.3280417919158936,0.5690120260831432,-0.692512143,-0.374112419,-0.238101176
1710359166245563000,4.609562988,-9.635764122,6.041913986206055,5.875109672546387,-0.737518013,0.6242321729660034,0.2576846778392792,-1.013565302,1.193074345588684,3.0187435150146484,0.5493532203830047,-0.723642628,-0.32432035,-0.263379434
1710359166255582000,4.619582031,-7.560209274,5.780845642089844,6.617956638336182,-0.713306367,0.6469631195068359,0.2695046067237854,-0.821437895,1.3720035552978516,2.5815696716308594,0.5349920318949566,-0.748325495,-0.273425042,-0.281124964
1710359166265601000,4.629601074,-5.42105341,5.687060356140137,7.129380702972412,-0.683211446,0.677582324,0.27222076058387756,-0.748001933,1.3682702779769897,2.1024739742279053,0.5275066590468692,-0.765823442,-0.222766325,-0.292619669
1710359166275619800,4.639619873046875,-3.80241847,5.742822170257568,7.386667728424072,-0.647968233,0.7136805653572083,0.2660771608352661,-0.819683135,1.2510868310928345,1.6420801877975464,0.5262374970765521,-0.776640676,-0.172823156,-0.300059082
1710359166285638000,4.649637939453125,-2.613674164,5.981195449829102,7.550544261932373,-0.608338654,0.7524411082267761,0.2525002658367157,-1.002607942,0.9038698673248291,1.174074411392212,0.5295183596849506,-0.781684086,-0.123369885,-0.305548911
1710359166295657000,4.659656982421875,-2.195903063,6.291409015655518,7.7086968421936035,-0.564311147,0.7915171384811401,0.23463468253612518,-1.179356337,0.2531604766845703,0.9616239070892334,0.5350839036336374,-0.78225156,-0.073483615,-0.310431703
1710359166305675800,4.669675781,-2.272397995,6.525595664978027,7.981600284576416,-0.51521033,0.8289057016372681,0.21788451075553894,-1.281542659,-0.297243714,0.8579974174499512,0.5402364375151498,-0.780035413,-0.022068239,-0.314964017
1710359166315694800,4.679694824,-2.584022999,6.607094764709473,8.297416687011719,-0.460092574,0.8635877370834351,0.20623043179512024,-1.261083603,-0.571778715,0.8197400569915771,0.5435677656328527,-0.77596962,0.031406414702054984,-0.318463238
1710359166325713000,4.689712891,-2.654334784,6.421733379364014,8.547650337219238,-0.399204314,0.8944491147994995,0.2014867216348648,-1.119365692,-0.519830465,1.0084284543991089,0.5448396895843328,-0.770282297,0.086072904,-0.320010077
1710359166335731700,4.699731689453125,-2.150456429,6.087335109710693,8.775401115,-0.332923442,0.9213675856590271,0.20060917735099792,-1.003380299,-0.190974951,1.2443370819091797,0.5458302500460641,-0.761973619,0.14035951898436017,-0.319006039
1710359166345750800,4.709750732421875,-1.114405513,5.601931095123291,8.854108810424805,-0.26216805,0.9443529844284058,0.19865910708904266,-0.97271049,0.19932377338409424,1.424113154411316,0.5486815073662352,-0.749862813,0.1924456156083737,-0.31562489
1710359166355769900,4.719769775390625,0.12344607710838318,5.177682399749756,8.82562542,-0.188059062,0.9633710980415344,0.19117993116378784,-0.996053457,0.4930192232131958,1.5619022846221924,0.5548924048839958,-0.73315222,0.24099333755617555,-0.310651589
1710359166365787600,4.729787598,1.0089296102523804,4.929284572601318,8.639358520507812,-0.112447172,0.9776387214660645,0.1777036041021347,-1.106852174,0.5281444787979126,1.5256197452545166,0.5638801360757898,-0.712148502,0.28582567004399834,-0.305266392
1710359166375806700,4.739806641,1.3460681438446045,4.760583877563477,8.48746109,-0.036440168,0.9860947728157043,0.16213995218276978,-1.222669363,0.29169148206710815,1.3180389404296875,0.5736605956750247,-0.688189109,0.32781965582835015,-0.299739273
1710359166385825800,4.749825684,1.336251974105835,4.47081995,8.355054855,0.039685596,0.9880644083023071,0.14884136617183685,-1.160062194,-0.060635269,1.145805835723877,0.5826899697554696,-0.66273619,0.3676974671944786,-0.293345725
1710359166395844900,4.759844970703125,1.2770757675170898,4.070907115936279,8.282807350158691,0.11568566411733627,0.9834879040718079,0.13917112350463867,-0.986840427,-0.287030876,1.0985913276672363,0.5907449312265504,-0.636569448,0.40541940837107754,-0.285368121
1710359166405863700,4.76986377,1.3053293228149414,3.6135003566741943,8.157988548278809,0.19110478460788727,0.9725691080093384,0.13262082636356354,-0.845691562,-0.267948806,1.1461267471313477,0.598122246,-0.609943487,0.44077131993350055,-0.275571001
1710359166415882000,4.779882080078125,1.7796952724456787,3.119637966156006,8.032471656799316,0.26495692133903503,0.956040084,0.12564067542552948,-0.791766524,-0.115494311,1.190033197402954,0.6058981400884551,-0.582286926,0.4730351714301245,-0.264702271
1710359166425901000,4.789901123046875,2.5336310863494873,2.6435718536376953,7.7961039543151855,0.3365958034992218,0.9347220063209534,0.11400873214006424,-0.793977976,-0.018935323,1.2343798875808716,0.61525041,-0.552633221,0.5015983331797642,-0.253894772
1710359166435920000,4.799919922,3.4830210208892822,2.248325824737549,7.536158561706543,0.40477606654167175,0.9094294309616089,0.095364936,-0.844519079,0.031305432,1.251696228981018,0.626582712,-0.520565468,0.5260171684665674,-0.244359708
1710359166445939000,4.809938965,4.337700366973877,2.138687849,7.363861560821533,0.4698222279548645,0.8800135850906372,0.069592804,-0.913914025,-0.005746067,1.210009217262268,0.639627544,-0.485401585,0.5469750488924339,-0.236812554
1710359166455957000,4.819957031,4.559267997741699,2.138775349,7.09895134,0.531204879,0.8462275862693787,0.041475829,-0.940323532,-0.124319077,1.214902400970459,0.6526310652010349,-0.448185121,0.565568752,-0.230943209
1710359166465975800,4.829975830078125,4.652856826782227,1.9591413736343384,7.000527858734131,0.5888863205909729,0.8080762028694153,0.015023300424218178,-0.895587981,-0.195817351,1.1286228895187378,0.6646058969918448,-0.410507692,0.5822328440938123,-0.22536049
1710359166475995000,4.839994873046875,4.776590347290039,1.7133526802062988,7.030528545379639,0.644210935,0.7647701501846313,-0.01091658,-0.775848448,-0.273253918,1.0796116590499878,0.6762708639710454,-0.371822379,0.596900183,-0.219353998
1710359166486014000,4.850013916015625,4.78243351,1.4801808595657349,6.850882053375244,0.6962279677391052,0.7169286012649536,-0.035779942,-0.706115603,-0.255594373,1.1584148406982422,0.6874439766311505,-0.332741255,0.6094204514221604,-0.212863415
1710359166496031700,4.860031738,4.981054306030273,1.391178846359253,6.621344566345215,0.7435274124145508,0.6660977602005005,-0.058999062,-0.735394418,-0.051946759,1.1546411514282227,0.6976997502809275,-0.293737349,0.6198538860274532,-0.206675144
1710359166506050800,4.870050781,5.893557071685791,1.3603917360305786,6.488178730010986,0.7864910364151001,0.6119906902313232,-0.083061844,-0.785361886,0.026040315628051758,1.0241934061050415,0.7075085986350778,-0.252810256,0.6281369681788251,-0.202392017
1710359166516070000,4.880069824,6.502168179,1.3434398174285889,6.296647548675537,0.8251809477806091,0.5543117523193359,-0.10869734,-0.812088847,-0.181402206,0.8801206946372986,0.7169187383538741,-0.208880972,0.6340505249391962,-0.200938535
1710359166526089000,4.890088867,6.392009258270264,1.25593102,6.0789265632629395,0.859258235,0.4943055510520935,-0.131671652,-0.803411007,-0.321408242,0.9277379512786865,0.7250258422349428,-0.164500424,0.6380468505752276,-0.200433121
1710359166536107800,4.900107666015625,5.954607963562012,1.1332385540008545,5.904326438903809,0.8887647986412048,0.4330921769142151,-0.150094882,-0.771500885,-0.29570201,0.946435809,0.7316511514736225,-0.121477835,0.6404652160861015,-0.199334302
1710359166546125800,4.910125732421875,5.225275993347168,0.9831382632255554,5.7577595710754395,0.9139383435249329,0.3717104196548462,-0.162936479,-0.698087454,-0.173391968,1.0518829822540283,0.7368470597384631,-0.081267013,0.6418157313189291,-0.196277288
1710359166556145000,4.920144775390625,5.358468055725098,0.7974500060081482,5.7566447257995605,0.9350208640098572,0.30972039699554443,-0.172654405,-0.623161614,-0.045987487,1.146867036819458,0.7412101080790762,-0.042528422,0.6417664170276332,-0.192184723
1710359166566163700,4.930163818359375,5.083066940307617,0.46315351128578186,5.685847282409668,0.9521380066871643,0.24606920778751373,-0.181337416,-0.575551033,-0.15827018,1.1620807647705078,0.7452381105558454,-0.003824267,0.6397786083310063,-0.187853447
1710359166576182800,4.940182861328125,4.632768630981445,0.32484978437423706,5.387380599975586,0.9647656083106995,0.18397372961044312,-0.18809852,-0.544828415,-0.122206211,1.1902958154678345,0.7488413337153734,0.03219335,0.6363287883598004,-0.182444329
1710359166586200800,4.950200927734375,4.783095359802246,0.2837657332420349,5.1611199378967285,0.9734728336334229,0.12385527789592743,-0.192381844,-0.608421504,-0.15930149,1.085097312927246,0.7514339987915695,0.066932743,0.6319249046442971,-0.177589421
1710359166596220000,4.960219970703125,4.146391868591309,0.29238957166671753,4.773878098,0.9787580370903015,0.0663267,-0.193993852,-0.676405072,-0.439556718,1.0658047199249268,0.7530648370367673,0.099889504,0.6269171861941344,-0.172888262
1710359166606238700,4.97023877,3.7585864067077637,0.30725935101509094,4.264429092407227,0.981190026,0.014509652741253376,-0.192498818,-0.66838479,-0.556868076,1.0654388666152954,0.7536982348273172,0.12897308428970655,0.6221868988025004,-0.167894266
1710359166616257800,4.980257813,3.5509274005889893,0.1371607482433319,3.910384178161621,0.9812495708465576,-0.032671932,-0.189952284,-0.599673033,-0.763379157,0.9768175482749939,0.7537520949257916,0.15577578429196415,0.6170557231074242,-0.163810746
1710359166626275800,4.990275879,2.7217905521392822,-0.024469694,3.5009567737579346,0.9793485403060913,-0.075071469,-0.18772541,-0.484872162,-0.85519588,1.0555843114852905,0.7539497643974288,0.1791253029423356,0.611597436,-0.159444331
1710359166636295000,5.000294922,2.212038278579712,-0.182883248,3.0526950359344482,0.9760990142822266,-0.111547306,-0.186515838,-0.404535234,-0.656595469,1.1383132934570312,0.7545590506003444,0.19811454948708518,0.6062117696400284,-0.154591973
1710359166646314000,5.010313965,2.1089677810668945,-0.322778046,2.7575337886810303,0.9719260334968567,-0.143778533,-0.18624559,-0.407411933,-0.594518006,0.9929015040397644,0.7552909156074377,0.21487594650462638,0.6005876562490805,-0.150526882
1710359166656332800,5.020332763671875,1.5570560693740845,-0.340109706,2.4599525928497314,0.9671785235404968,-0.172416404,-0.186650142,-0.460815668,-0.58313787,0.8338059186935425,0.7561984903504769,0.22935211755817708,0.5950399443135098,-0.146591033
1710359166666351900,5.030351806640625,1.2918800115585327,-0.322334439,2.092390298843384,0.962473452,-0.196385503,-0.187290788,-0.539957464,-0.460871667,0.6711623072624207,0.7571492074359433,0.24093747384969424,0.5901726338233922,-0.14272581
1710359166676370000,5.040369873046875,0.9303721785545349,-0.278243423,1.8026654720306396,0.9579035639762878,-0.217098236,-0.187853768,-0.629809141,-0.482975066,0.5280485153198242,0.7580132252471512,0.2506933801047051,0.5858548810245867,-0.139078435
1710359166686388700,5.050388672,0.691270113,-0.262645274,1.4826840162277222,0.9537004828453064,-0.234250247,-0.188632563,-0.603251874,-0.473482966,0.4781986474990845,0.7589144351848573,0.25829661659603276,0.5822083596071767,-0.135518329
1710359166696407800,5.060407715,0.5008059144020081,-0.278608292,1.2224273681640625,0.9499366879463196,-0.248212546,-0.18976517,-0.482117474,-0.448473305,0.38852620124816895,0.7598153681007579,0.2643270809298424,0.5790065682094282,-0.132526141
1710359166706427000,5.070427001953125,0.27085256576538086,-0.279762775,1.0273960828781128,0.9465598464012146,-0.259574234,-0.191430733,-0.367137849,-0.43567729,0.3234803080558777,0.7608441909673342,0.2688354138857863,0.5762049566232023,-0.129736385
1710359166716444700,5.080444580078125,0.01456381,-0.255145073,0.8525614142417908,0.943558395,-0.268739671,-0.193588763,-0.28598088,-0.406080306,0.3220983147621155,0.7620230132097034,0.271925331,0.5738137590324516,-0.126946279
1710359166726464000,5.090464111328125,-0.194907397,-0.20552747,0.6492232084274292,0.9410657286643982,-0.275608987,-0.196048453,-0.219752252,-0.425654501,0.3042333126068115,0.7632965923958204,0.27353761820773403,0.5719728540378245,-0.124107008
1710359166736500200,5.100500244140625,-0.272946537,-0.141093031,0.4699365198612213,0.9391680955886841,-0.280392826,-0.198350951,-0.150395572,-0.47218588,0.25079548358917236,0.7740642542591817,0.1811172843759938,0.6066473872128989,1.1490840690645713e-17
1710359166746519300,5.110519287109375,-0.368302077,-0.039717942,0.2926461696624756,0.9379094839096069,-0.283329576,-0.200125337,-0.081464171,-0.535838485,0.19902676343917847,0.774633508,0.18103045281644695,0.6059416701493991,0.002364152
1710359166756537000,5.120537109,-0.509962261,0.097076654,0.12603719532489777,0.9373794794082642,-0.284400016,-0.20108743,-0.025026083,-0.566048622,0.20520737767219543,0.7749343789813378,0.17997479366704755,0.6058591919340894,0.004508228
1710359166766556200,5.130556152,-0.74100852,0.22350916266441345,-0.030325504,0.9375740885734558,-0.283580869,-0.201337934,0.032625555992126465,-0.581180513,0.254438579,0.7749993127370425,0.17769814217269833,0.6064275764405788,0.00671884
