time,seconds_elapsed,rotationRateX,rotationRateY,rotationRateZ,gravityX,gravityY,gravityZ,accelerationX,accelerationY,accelerationZ,quaternionW,quaternionX,quaternionY,quaternionZ
1710358910298293500,0.061293457,-1.404323101,-0.318077445,0.056352399,-0.206071407,0.592926562,-0.778442442,0.1084304004907608,0.028975904,0.13226330280303955,0.9429853217196106,-0.314388028,-0.109265435,1.0443605219735203e-17
1710358910308312600,0.0713125,-1.363952041,-0.363342285,0.056030422,-0.208370641,0.6038045883178711,-0.769416511,0.1215481162071228,0.027451575,0.13646668195724487,0.940589364,-0.320965752,-0.110782413,4.81088E-05
1710358910318331600,0.081331543,-1.246503353,-0.40641439,0.061599623411893845,-0.210979626,0.6139391660690308,-0.760635495,0.1340295374393463,0.060316264629364014,0.14514172077178955,0.9382525376916026,-0.327146589,-0.112504955,0.000208615
1710358910328350500,0.091350586,-1.15497005,-0.429238915,0.09420231,-0.213673145,0.6231915950775146,-0.752313793,0.13618899881839752,0.11193114519119263,0.12119507789611816,0.9360323465790341,-0.33281823,-0.114346541,0.000587371
1710358910338400300,0.101400146,-1.104188919,-0.436945826,0.12578074634075165,-0.216237113,0.6318737864494324,-0.744296372,0.12556934356689453,0.14046519994735718,0.083835006,0.9338888039369676,-0.338302474,-0.115772407,9.373609047089685e-18
1710358910348419300,0.111419434,-1.160286188,-0.411060333,0.15472637116909027,-0.218494862,0.6405348777770996,-0.736189544,0.10965389013290405,0.13793808221817017,0.050337613,0.9317157372521944,-0.343647953,-0.117521557,0.000725314
1710358910358438100,0.121438232,-1.23579216,-0.379238755,0.17217034101486206,-0.220323205,0.6497275829315186,-0.727538109,0.088365152,0.1053231954574585,0.031539082527160645,0.929390593,-0.349358025,-0.119079419,0.001458936
1710358910368457200,0.131457275,-1.127109885,-0.349808753,0.15551573038101196,-0.221886024,0.6587516665458679,-0.718896925,0.071403801,0.074051797,0.028574169,0.9270619223855286,-0.355008947,-0.120499674,0.00216234
1710358910378477300,0.141477295,-0.922776997,-0.334115803,0.1595006138086319,-0.223311096,0.666449785,-0.711320519,0.061598405,0.063347638,0.02833724,0.9250147212598582,-0.359860825,-0.121819231,0.00285953
1710358910388496400,0.151496338,-0.702957809,-0.344750494,0.19647088646888733,-0.224516556,0.6726468801498413,-0.705080569,0.05555594,0.10539889335632324,0.029284119606018066,0.9233233810573653,-0.363746764,-0.123077232,0.003798815
1710358919225292300,8.988292236328125,-1.055327654,-0.246350482,-2.394620895,0.5467337369918823,-0.497175753,-0.673720002,-0.53965354,-0.292054564,0.41361868381500244,0.7289878367902367,0.036012788,0.40229726011693423,0.5526634474864596
1710358919235311400,8.998311279296875,-1.04126215,-0.444420934,-2.520526171,0.5564340949058533,-0.476352245,-0.680786014,-0.538016677,-0.260906577,0.459472656,0.7366398614500271,0.028124465,0.3985172464927427,0.5456690190142771
1710358919245330400,9.008330322265625,-1.055630684,-0.696750939,-2.683421135,0.5646020770072937,-0.454686701,-0.688828349,-0.55007565,-0.254969001,0.47473227977752686,0.7449172523077616,0.020672365,0.39390160633248605,0.5380636887896075
1710358919255349200,9.018349365234375,-1.222589374,-0.92994988,-3.031880856,0.571582556,-0.430590868,-0.69848758,-0.51471293,-0.297375381,0.41285836696624756,0.7542474608025478,0.013027766769737737,0.3880547307331261,0.5294852979468968
1710358919265368300,9.028368408203125,-1.43725419,-1.126309037,-3.315834761,0.5776031613349915,-0.402869195,-0.709979594,-0.48853749,-0.316353768,0.3791385889053345,0.7646471572841819,0.004533473,0.3807750718983432,0.5199082257330602
1710358919275387400,9.038387451171875,-1.621621966,-1.267738938,-3.525733709,0.5822589993476868,-0.372004449,-0.722901881,-0.551985443,-0.299550056,0.39302217960357666,0.7757384387972512,-0.00472144,0.3721918346149675,0.5095889158224655
1710358919285406500,9.048406494140625,-1.798041463,-1.343660593,-3.70581007,0.5855723023414612,-0.338327676,-0.736640751,-0.675446451,-0.279256493,0.4206617474555969,0.787196644,-0.014775318,0.3625759587157781,0.4986401049967488
1710358919295425300,9.058425293,-1.942966104,-1.405413747,-3.921434164,0.5875518321990967,-0.301972508,-0.750730038,-0.785259843,-0.228621304,0.441037655,0.7988694064486871,-0.025648398,0.3521038981848067,0.48700391181896685
1710358919305444400,9.068444336,-2.057709932,-1.462172866,-4.201430798,0.588134229,-0.262869179,-0.76485157,-0.81872499,-0.153405786,0.4139147400856018,0.8108208905849623,-0.037302782,0.34085585008688596,0.47433677626322585
1710358919315463400,9.078463379,-2.148198605,-1.512568593,-4.484553814,0.5871540307998657,-0.220987618,-0.77872628,-0.783443034,-0.067433923,0.38562941551208496,0.8230289214706387,-0.049731281,0.3288824205800158,0.4604201460620296
1710358919325482200,9.088482177734376,-2.164391518,-1.547578573,-4.678981781,0.5842488408088684,-0.177039132,-0.792029381,-0.750737369,0.008399084,0.35274410247802734,0.8353138542105027,-0.06264708,0.3163236537026139,0.4452703330942025
1710358919335501300,9.098501220703126,-2.243505955,-1.592447281,-4.755992889,0.5789821743965149,-0.132092655,-0.804568946,-0.74183923,0.066769883,0.3367345333099365,0.8473313679799664,-0.07571961,0.30328547615362533,0.42931804435731524
1710358919345520400,9.108520263671876,-2.36811161,-1.65387857,-4.890783787,0.5710139870643616,-0.085487962,-0.81647706,-0.705214977,0.13868018984794617,0.33396369218826294,0.8589577374359223,-0.08935001,0.2894443502868897,0.4128319068224807
1710358919355539200,9.118539306640624,-2.289693117,-1.696843028,-4.967654705,0.5602582097053528,-0.038360197,-0.827429354,-0.643754244,0.22946135699748993,0.2813020348548889,0.8702096187421168,-0.102998118,0.27509402324911125,0.3955376826458711
1710358919365558300,9.128558349609374,-2.412576675,-1.67753315,-4.954491615,0.5469052195549011,0.008732743,-0.837149024,-0.625625253,0.2492019236087799,0.21451419591903687,0.880797543,-0.116669755,0.2604105537485442,0.3778497471690904
1710358919375577000,9.138577148,-2.616047859,-1.668441653,-4.971321106,0.5312032103538513,0.056699391,-0.84534514,-0.593291163,0.2666192054748535,0.2034536600112915,0.8905189381174028,-0.131011244,0.24528247776612658,0.36006770443192976
1710358919385596200,9.148596191,-2.634321451,-1.714062929,-5.007043839,0.5127958059310913,0.10527012497186661,-0.852032065,-0.492944062,0.32998692989349365,0.1641201376914978,0.8994730949128669,-0.145820383,0.22960917646569048,0.342000476
1710358919395616300,9.158616211,-2.618466854,-1.762775064,-5.019827843,0.49138954281806946,0.1529027670621872,-0.857412994,-0.37046358,0.34352678060531616,0.13379549980163574,0.9077546067211975,-0.160325103,0.21351664671480658,0.32355539898721897
1710358919405635300,9.168635254,-2.649307728,-1.72496438,-5.071949482,0.467372864,0.1998826414346695,-0.86116755,-0.296459109,0.31403347849845886,0.023353278636932373,0.9152834890696712,-0.174812957,0.19712087829271122,0.3046967546148537
1710358919415654100,9.178654052734375,-2.656243563,-1.631361127,-5.024994373,0.44158655405044556,0.24558289349079132,-0.862954438,-0.306836128,0.3048933148384094,-0.026053071,0.921955845,-0.189195184,0.18090870240218657,0.2854376934222964
1710358919425673200,9.188673095703125,-2.927037001,-1.507562876,-5.02430582,0.41448351740837097,0.29146668314933777,-0.862119794,-0.359277189,0.2846442759037018,0.007597148,0.9274709321640245,-0.204422204,0.16477758349778335,0.26619096743114795
1710358919435692300,9.198692383,-2.598296165,-1.399662018,-4.986515045,0.38621243834495544,0.3355638086795807,-0.859207153,-0.392911017,0.31786346435546875,0.012817442417144775,0.932103154,-0.219448975,0.14912601445081702,0.24655111202359728
1710358919445711000,9.208711181640625,-2.669702053,-1.327823877,-4.868681908,0.35690611600875854,0.37616264820098877,-0.855055392,-0.423373371,0.2976961135864258,-0.056367278,0.9359786126944212,-0.233444694,0.13407419830011075,0.22687377289463764
1710358921810204200,11.5732041,-1.137147665,0.19317090511322021,-4.951358795,0.6868149638175964,-0.232196614,-0.688745201,-0.757112086,0.3036078214645386,0.22524428367614746,0.773120917,-0.095684917,0.3827163206387983,0.49664544668555677
1710358921820223200,11.58322314453125,-1.260123134,0.13225030899047852,-5.025644302,0.6984879374504089,-0.189322919,-0.690124214,-0.637620568,0.3241649270057678,0.2472226619720459,0.7844018878630927,-0.110237157,0.37786990686024424,0.4793493459506704
1710358921830242000,11.593241943359375,-1.471290708,0.065729976,-5.025729179,0.7075933814048767,-0.144452095,-0.691697299,-0.494138122,0.34710416197776794,0.2798474431037903,0.7952639374280618,-0.125317844,0.37208436738392536,0.46195654487518617
1710358921840261000,11.60326123046875,-1.69406271,-0.046927065,-5.003443241,0.7137616872787476,-0.097711608,-0.693539321,-0.375077486,0.3916264772415161,0.2834289073944092,0.8055743295671216,-0.140974173,0.36518027427812205,0.4447693073759552
1710358921850280200,11.61328027,-1.785399675,-0.197377026,-4.949943066,0.7166005969047546,-0.049886126,-0.695697486,-0.298586011,0.42943334579467773,0.3051183223724365,0.8153761169072962,-0.156799131,0.3571628313174921,0.4277973983687231
1710358921860299300,11.62329931640625,-1.907165289,-0.294916093,-4.86883831,0.7161130309104919,-0.00175903,-0.697982192,-0.278521419,0.4536328911781311,0.339049757,0.8246176622015016,-0.172521255,0.34820300153137984,0.4110923453403613
1710358921870318000,11.633318115234376,-2.07483983,-0.287072748,-4.783560753,0.7129333019256592,0.046726603,-0.699673355,-0.324642777,0.4970661997795105,0.3501403331756592,0.8330751882388208,-0.188478903,0.3385838619177714,0.3947435489569022
1710358921880337200,11.643337158203124,-2.17061162,-0.179742843,-4.717100143,0.7079007029533386,0.095483452,-0.699828267,-0.402770638,0.5477662086486816,0.3973991274833679,0.8405663338296571,-0.204899678,0.32878867901074377,0.3786323961395098
1710358921890356200,11.653356201171874,-2.287353039,-0.098627441,-4.673288822,0.7013153433799744,0.1441001147031784,-0.698134601,-0.431539953,0.5299569964408875,0.5019219517707825,0.8471378567397364,-0.221606318,0.3190976789308387,0.36252549985529703
1710358921900375000,11.663375,-2.625903845,-0.165974781,-4.693982601,0.6925591230392456,0.1939202845096588,-0.694806993,-0.330468059,0.46171945333480835,0.600980818,0.8528079751743977,-0.239206149,0.30883153,0.34658626651466806
1710358921910394000,11.67339404296875,-2.88859129,-0.519642591,-4.665913105,0.6799896955490112,0.24541820585727692,-0.69092977,-0.119305432,0.46471071243286133,0.6520810127258301,0.857809231,-0.257649767,0.2969035241075071,0.3311016475674432
1710358921920413200,11.68341309,-2.9989748,-1.057497263,-4.46184206,0.6621299386024475,0.29653552174568176,-0.688222826,0.11825031042098999,0.4862251877784729,0.7108212113380432,0.8624317735669671,-0.275712007,0.2826154134846826,0.3167379738340588
1710358921930433300,11.693433349609375,-3.030450344,-1.461338997,-4.231927872,0.639369011,0.3456825613975525,-0.686812162,0.2743579149246216,0.45303887128829956,0.7128131985664368,0.8666335215246105,-0.292789822,0.2662105178892142,0.3038955809954496
1710358921940452400,11.703452392578125,-2.971498489,-1.583636165,-4.072450638,0.6134274005889893,0.39238524436950684,-0.685376346,0.24356728792190552,0.4489997625350952,0.6713078022003174,0.8702855269494164,-0.308914223,0.2487646062621653,0.2920470072345177
1710358921950471200,11.71347119140625,-2.942324638,-1.484919786,-3.998989344,0.5861504673957825,0.4368029534816742,-0.682371557,0.056656599044799805,0.46184828877449036,0.6564927101135254,0.8732317170775964,-0.324432556,0.23142545374493317,0.280450221
1710358921960490200,11.72349023,-3.084098101,-1.368368149,-4.072276115,0.5579096078872681,0.48031264543533325,-0.676784039,-0.127520204,0.4385564923286438,0.6321826577186584,0.8753778481005594,-0.340096099,0.21434231595359682,0.2685249889825287
1710358921970509300,11.73350927734375,-3.569524527,-1.282085657,-4.135070324,0.5283070206642151,0.5249404907226562,-0.667329848,-0.189790785,0.3874741196632385,0.5952932238578796,0.8763709355411288,-0.357095106,0.19702325304751894,0.25620080197046174
1710358921980528400,11.74352832,-4.168121815,-1.308840513,-4.050061703,0.49725472927093506,0.5716692209243774,-0.65263468,-0.096696228,0.3315291404724121,0.5459758639335632,0.8756044196638765,-0.37636043,0.17898456494612436,0.24420124800251222
1710358921990547200,11.753547119140626,-4.489365578,-1.479921103,-3.869482994,0.46466562151908875,0.6188374161720276,-0.633345306,0.10222890973091125,0.31278806924819946,0.4925830364227295,0.8730834552734797,-0.397143449,0.16001386574970383,0.23323400140624723
1710358922000566300,11.763566162109376,-4.445717812,-1.577691555,-3.664301157,0.4308359920978546,0.6637368202209473,-0.611419499,0.254832923,0.3624168038368225,0.4348143935203552,0.8693888037968602,-0.417805949,0.14045800078593018,0.2233222965090696
1710358922010585300,11.77358544921875,-4.065331936,-1.472779751,-3.497178078,0.39707207679748535,0.7042868733406067,-0.588484347,0.24513980746269226,0.5009286403656006,0.3120104670524597,0.8651606046097694,-0.437046838,0.12144092600967536,0.21386754812272682
1710358922020604200,11.783604248046874,-3.639973879,-1.246404409,-3.397822857,0.3642643094062805,0.7396077513694763,-0.56594336,0.11289328336715698,0.6398173570632935,0.15903741121292114,0.8609741973435631,-0.454143954,0.10383440895696502,0.2041938568028199
1710358922030623200,11.793623291015624,-3.473838329,-0.989656627,-3.362222433,0.33247125148773193,0.7710829973220825,-0.543041408,-0.033048034,0.6624497771263123,0.046306908,0.8566814516788399,-0.469887679,0.087663421,0.19395272214757098
1710358922040642300,11.803642333984374,-3.602518559,-0.710158944,-3.343741417,0.3015533983707428,0.8004534244537354,-0.518015206,-0.11214605,0.5915449261665344,-0.002690792,0.8517640448624401,-0.485499376,0.072682477,0.18304530963983467
1710358922050661400,11.813661376953124,-3.898402452,-0.548333704,-3.3258214,0.2712027430534363,0.8289290070533752,-0.489209294,-0.089455307,0.46054553985595703,-0.011034727,0.8456666981062946,-0.501971585,0.058479769883036554,0.17161724430933942
1710358922060680200,11.82368017578125,-4.113655567,-0.565881312,-3.245265961,0.24078771471977234,0.856434703,-0.456662893,0.02264002,0.37292027473449707,0.030027270317077637,0.8382595431398541,-0.519323978,0.044397801388660695,0.16016394271218704
1710358922070698500,11.833698486328124,-4.036213875,-0.627454758,-3.056335211,0.21067816019058228,0.8816012740135193,-0.422367066,0.15034480392932892,0.4051114320755005,0.046512722969055176,0.8299913184902598,-0.536556933,0.030383002,0.1493251601784113
1710358922080717600,11.843717529296875,-3.718189716,-0.655062377,-2.871352673,0.18158426880836487,0.903221071,-0.388868719,0.20359331369400024,0.4923936128616333,0.015059053897857666,0.8216024107014693,-0.552523689,0.016829028,0.13929786009974482
1710358922090736400,11.85373633,-3.282957315,-0.646613181,-2.75449872,0.15346041321754456,0.9210691452026367,-0.357884616,0.14591701328754425,0.5432405471801758,-0.033732027,0.8136929361885848,-0.566605973,0.003919281,0.12979233562559325
1710358922100755500,11.86375537109375,-3.209658623,-0.548364103,-2.599876642,0.12651242315769196,0.9357616901397705,-0.329157978,0.040006712,0.503752589,-0.076817214,0.8062321299490731,-0.579096837,-0.008238177,0.12070191090208439
1710358922110774500,11.87377441,-3.223115683,-0.350886852,-2.712763548,0.100037582,0.9490503668785095,-0.298824579,-0.041687988,0.44458073377609253,-0.077563822,0.7981620739112978,-0.591775786,-0.019726489,0.11112946417679916
1710358922120793600,11.883793701171875,-2.789421082,-0.372736484,-2.74898982,0.072775759,0.9599629044532776,-0.270508677,-0.070761621,0.4595012664794922,-0.023573786,0.790621258,-0.603149835,-0.030918342,0.10085815101821083
1710358922130812400,11.8938125,-2.866811037,-0.522434711,-2.686050892,0.045369543,0.9687880873680115,-0.243703872,-0.004537046,0.3572923541069031,-0.07911092,0.7833083018712739,-0.613480387,-0.042306923,0.090995795
1710358922140831500,11.90383154296875,-2.666568279,-0.629728675,-2.642175674,0.018041024,0.9761173725128174,-0.216493413,0.11596163362264633,0.3568141460418701,-0.064298674,0.7756124232264995,-0.623564743,-0.054039878,0.081682798
1710358922150850600,11.91385059,-2.338799238,-0.718530476,-2.570799112,-0.00882962,0.9813218116760254,-0.192171484,0.16559840738773346,0.46067965030670166,-0.073392332,0.7686071330286707,-0.632128966,-0.065781681,0.073000071
1710358922160870700,11.92387060546875,-2.077899456,-0.750874341,-2.550411701,-0.035396367,0.9847807884216309,-0.170158431,0.13726402819156647,0.39488840103149414,-0.164451346,0.7621587385477803,-0.639457989,-0.077551709,0.064755667
1710358922170889500,11.933889404296876,-1.665000558,-0.676514328,-2.56172657,-0.061762493,0.9865517020225525,-0.151331633,0.067392975,0.3361870050430298,-0.199727163,0.7566141485335449,-0.645291572,-0.089067246,0.056576427
1710358922180908500,11.943908447265626,-1.431081533,-0.633259714,-2.640424013,-0.088404633,0.9867972731590271,-0.135704592,0.003184281,0.2451820969581604,-0.245429263,0.7520205323888436,-0.64967251,-0.10036601,0.048139615023872984
1710358922190927600,11.95392773,-1.335236669,-0.615133166,-2.683397293,-0.115579151,0.9858474731445312,-0.121434227,-0.023260579,0.19281768798828125,-0.275034726,0.7477718354841492,-0.653299268,-0.111727143,0.039425782
1710358922200946700,11.96394677734375,-1.349551678,-0.548655331,-2.645991325,-0.142589137,0.9839279651641846,-0.107490353,-0.02188538,0.2095230221748352,-0.294654846,0.7435113435610804,-0.6566188,-0.122908806,0.030595416
1710358922210965500,11.973965576171874,-1.508129358,-0.437690884,-2.555125952,-0.168722734,0.981286883,-0.092783198,-0.014153868,0.188390851,-0.277394831,0.7388659862309975,-0.660137108,-0.133519282,0.021649272729425136
1710358922220984600,11.983984619140625,-1.640710115,-0.31571731,-2.396602631,-0.193411261,0.9781311750411987,-0.076496705,-0.02564396,0.2077515721321106,-0.338984668,0.7335452512029462,-0.664245313,-0.14328228,0.012643525942149117
1710358922231003600,11.994003662109375,-1.444613814,-0.174697489,-2.240587711,-0.216214731,0.9744623899459839,-0.06061548,-0.082491338,0.2956639528274536,-0.426627994,0.7282121765094022,-0.668276293,-0.151983737,0.003844279
1710358922241022500,12.00402246,-0.814103246,0.051392100751399994,-2.196145773,-0.237813652,0.9700546264648438,-0.049385574,-0.185022697,0.3625107407569885,-0.489432633,0.7243404978934733,-0.670686881,-0.159644361,-0.00487552
1710358922251041500,12.01404150390625,-0.518015385,0.21415075659751892,-2.239672899,-0.259208351,0.9648331999778748,-0.043682531,-0.246925712,0.286387563,-0.464999497,0.7222523077129285,-0.671137068,-0.166534596,-0.013893099
1710358922261060400,12.024060302734375,-0.659310758,0.18086417019367218,-2.264359713,-0.280887276,0.958960772,-0.038686872,-0.170544028,0.17798691987991333,-0.383722067,0.7202800684009414,-0.671278365,-0.173326051,-0.023239746
1710358922271079400,12.034079345703125,-0.869198442,0.1258828490972519,-2.225328684,-0.302316427,0.9526751041412354,-0.031860087,-0.006353647,0.19693738222122192,-0.249343991,0.7175475183203952,-0.672002051,-0.180230965,-0.03249088
1710358922281098500,12.044098388671875,-1.010592341,0.12533263862133026,-2.258796215,-0.323561698,0.9459248781204224,-0.023113795,0.1260060966014862,0.20399290323257446,-0.162631273,0.7140084471665541,-0.673365726,-0.187140858,-0.041820802
1710358922291117300,12.054117431640625,-0.902647495,0.10904783010482788,-2.287256479,-0.345024884,0.9384801983833313,-0.014598196,0.17012858390808105,0.17348897457122803,-0.140919209,0.7104041449215063,-0.674531042,-0.194187475,-0.051236862
1710358922301136400,12.064136474609375,-0.818070292,0.06534642,-2.290080786,-0.366506666,0.9303918480873108,-0.006640941,0.14627650380134583,0.13625860214233398,-0.124248803,0.706860678,-0.675370988,-0.20137914,-0.060568686
1710358922311155500,12.074155517578125,-0.474632502,-0.050708167,-2.156077147,-0.387193829,0.9219980835914612,-0.00071493,0.10611164569854736,0.16831868886947632,-0.043703258,0.7039714806347502,-0.675351692,-0.208668703,-0.069149292
1710358922321174300,12.08417431640625,-0.43777889,-0.183551699,-1.901164651,-0.405963659,0.9138823747634888,0.00354344,0.063007116,0.20031440258026123,-0.065936446,0.7017113273517974,-0.674668069,-0.215858095,-0.076351273
1710358922331193300,12.09419336,-1.128469467,-0.141345561,-1.628568292,-0.421985537,0.9065318703651428,0.011331275,0.004077792,0.27480363845825195,0.022329807,0.6981982931807161,-0.675528153,-0.222097617,-0.082786469
1710358922341212400,12.10421240234375,-1.243939877,-0.001788989,-1.429216027,-0.435801297,0.8997523188591003,0.022875351831316948,-0.048405945,0.5621923804283142,0.14297258853912354,0.693247002,-0.678172556,-0.226979427,-0.089280889
1710358922351231500,12.11423145,-0.881143808,0.040958848,-1.263958693,-0.447885931,0.8935064673423767,0.032320529,-0.022969812,0.7510553598403931,0.22205889225006104,0.6890329751128541,-0.680306213,-0.230962598,-0.095254345
1710358922361250300,12.124250244140624,-0.713548422,-0.027809564,-1.11286664,-0.458520681,0.8878195881843567,0.039183382,0.095239401,0.6707894802093506,0.16497933864593506,0.6858188771762027,-0.681581365,-0.234602926,-0.100303846
1710358922371269400,12.134269287109374,-0.631564379,-0.091478817,-0.880457938,-0.467405826,0.8828705549240112,0.045515485,0.242521733,0.6790801882743835,0.1375443935394287,0.6829041409216515,-0.682755204,-0.237914005,-0.104327953
1710358922381288400,12.144288330078124,-0.38089776,-0.045672182,-0.614692032,-0.473919719,0.8791205286979675,0.050473582,0.3293120563030243,0.7772822380065918,0.025896795094013214,0.6806366987390312,-0.683685259,-0.240439719,-0.107224423
1710358922391308500,12.15430859,-0.035803758,0.087773338,-0.472386271,-0.478652179,0.8764565587043762,0.052116818726062775,0.32476726174354553,0.743798018,-0.152092218,0.679692653,-0.683698458,-0.242104992,-0.10935977
1710358922401327400,12.164327392578125,-0.024529263,0.21038366854190826,-0.389434397,-0.482507885,0.8743817806243896,0.051407203,0.27137199,0.5609667301177979,-0.269653559,0.6796291804599548,-0.683102828,-0.243051697,-0.111357925
1710358922411346400,12.174346435546875,-0.281636685,0.2260632961988449,-0.304381281,-0.485658199,0.872623086,0.051625967025756836,0.2600416839122772,0.4034542441368103,-0.329640865,0.6791952642553646,-0.683064507,-0.243384187,-0.113493983
1710358922421365500,12.184365478515625,-0.333995223,0.159891739,-0.204266414,-0.488019496,0.871190071,0.053523492,0.33088451623916626,0.3484906554222107,-0.243800402,0.6781693152841712,-0.68374393,-0.243425522,-0.115432153
1710358922431384600,12.194384521484375,-0.396035969,0.13217461109161377,-0.03071326,-0.489160448,0.870401919,0.055882916,0.41384294629096985,0.3275352120399475,-0.202626467,0.6770729322778527,-0.684698618,-0.24316509,-0.116751692
1710358922441403400,12.20440332,-0.509673834,0.20611728727817535,0.1855790913105011,-0.488599956,0.8705003261566162,0.059156615287065506,0.41537296772003174,0.38296347856521606,-0.197782516,0.6757124667890075,-0.686274539,-0.242085863,-0.11761989
1710358922451422500,12.21442236328125,-0.322798222,0.3413589894771576,0.40699562430381775,-0.486155927,0.8716987371444702,0.061594136,0.3277391195297241,0.5690666437149048,-0.111825943,0.6747304193474282,-0.687937662,-0.239872552,-0.1180756
1710358922461441500,12.224441650390625,-0.07662762,0.43731430172920227,0.5367727875709534,-0.482215554,0.8738994002342224,0.061384879,0.2337108850479126,0.6515827775001526,-0.088865757,0.674812777,-0.688933044,-0.236777743,-0.118047944
1710358922471460600,12.234460693359376,0.066984139,0.44904470443725586,0.6204131245613098,-0.477412313,0.8766840696334839,0.059182122349739075,0.18952473998069763,0.5812626481056213,-0.147179365,0.675700106,-0.689332713,-0.233262666,-0.117636289
1710358922481479400,12.24447949,0.028031681,0.39308562874794006,0.7084881067276001,-0.471819818,0.8798717856407166,0.056672525,0.18292516469955444,0.47773319482803345,-0.168534517,0.6767745082960325,-0.689663853,-0.229564876,-0.116790604
1710358922491498500,12.25449853515625,0.010189302265644073,0.3643803596496582,0.7739821672439575,-0.46545884,0.88337189,0.054793026,0.17064374685287476,0.38582372665405273,-0.138319492,0.6776816971837886,-0.690247914,-0.22573066,-0.115546728
1710358922501517600,12.26451758,0.067800403,0.4160744547843933,0.807860792,-0.458647162,0.8870558738708496,0.052675623,0.11199796199798584,0.3139023780822754,-0.127031565,0.6786977317282684,-0.690787833,-0.221697951,-0.114156167
1710358922511536600,12.27453662109375,0.17007137835025787,0.4906871020793915,0.8516468405723572,-0.451501846,0.8908923268318176,0.049565785,0.019937545,0.24794727563858032,-0.163960814,0.6800718232916008,-0.691043396,-0.217352059,-0.112780055
1710358922521555500,12.284555419921874,0.308194637,0.5554746389389038,0.9104273319244385,-0.443876445,0.8949530124664307,0.045086368918418884,-0.061082691,0.20502251386642456,-0.200817466,0.6819542043930584,-0.690885048,-0.212652379,-0.11133406
1710358922531574500,12.294574462890624,0.4611023962497711,0.6148298382759094,0.9447690844535828,-0.435765803,0.8992131352424622,0.039038353,-0.109766454,0.16433972120285034,-0.23499155,0.6844200153156342,-0.69021979,-0.207643487,-0.109773071
1710358922541593600,12.304593505859375,0.6264408230781555,0.6647310853004456,0.9483667612075806,-0.427442789,0.9034994840621948,0.031329997,-0.146577626,0.11410921812057495,-0.267139077,0.6874837518550564,-0.688963655,-0.202469949,-0.108172031
1710358922551612400,12.3146123,0.7197113633155823,0.7261288166046143,0.9476048350334167,-0.419030637,0.907699466,0.022251347079873085,-0.182165682,0.050659299,-0.297794342,0.6910191296401159,-0.687204191,-0.197170162,-0.106616009
1710358928910286300,18.673286376953126,-1.866376519,-0.738752007,-2.953304291,0.6512441635131836,0.22881212830543518,-0.723551035,0.096787512,0.23394128680229187,0.44622260332107544,0.8859231620270221,-0.222403561,0.2979280875773534,0.2773367362579172
1710358928920305400,18.683305419921876,-2.07143712,-0.934788048,-2.840234995,0.6380151510238647,0.2618762254714966,-0.724125445,0.037308395,0.29612255096435547,0.4813886880874634,0.888866402,-0.234290311,0.28817586658175653,0.26828988168638523
1710358928930324500,18.693324462890626,-2.25118494,-1.04818213,-2.645270824,0.6231165528297424,0.29492366313934326,-0.724393427,-0.076897621,0.3679792881011963,0.502423882,0.8913087168775102,-0.246507922,0.2775556254042062,0.2603183519880568
1710358928940344600,18.703344482421876,-2.322257996,-1.046278477,-2.467026949,0.6075190901756287,0.32733768224716187,-0.723720074,-0.19598949,0.4373413920402527,0.5093799233436584,0.8931186536279638,-0.258906258,0.26665993850178393,0.25337574993147144
1710358928950363400,18.71336328,-2.268821001,-1.064174414,-2.332612991,0.5917012095451355,0.3583611845970154,-0.722126722,-0.256709695,0.47383803129196167,0.5470932722091675,0.8944476768074296,-0.271006126,0.2559146454323231,0.24703627185937904
1710358928960382500,18.723382568359376,-2.325163603,-1.223415971,-2.256279945,0.5749184489250183,0.38830474,-0.720200062,-0.210416496,0.4704142212867737,0.5564886927604675,0.8954972025754505,-0.282760642,0.24483949718224118,0.24121512099847012
1710358928970401500,18.733401611328127,-2.38120079,-1.422642708,-2.213794947,0.556363046,0.41792502999305725,-0.718191385,-0.109463632,0.4442119002342224,0.5400451421737671,0.8963463009043359,-0.29441635,0.23285902040429066,0.23592168570590966
1710358928980420600,18.743420654296877,-2.539233208,-1.597413301,-2.188614845,0.5359413027763367,0.44757696986198425,-0.715850413,-0.053031147,0.3565613329410553,0.5165706872940063,0.8969508086555407,-0.306149923,0.21987952619676426,0.2310944403123551
1710358928990439400,18.75343945,-2.79110837,-1.653464675,-2.160844088,0.5141476988792419,0.47807061672210693,-0.712109983,-0.083880424,0.24603530764579773,0.48594433069229126,0.8970254085065259,-0.318558567,0.2060714721605981,0.22671658291671468
1710358929000458500,18.76345849609375,-3.116362095,-1.537258148,-2.141847134,0.49210551381111145,0.5098346471786499,-0.705620944,-0.183359146,0.14690375328063965,0.44008755683898926,0.896244793,-0.332128244,0.19204260872464982,0.2226115003689345
1710358929010477600,18.77347754,-3.481218815,-1.337439895,-2.173392296,0.47063907980918884,0.5434014797210693,-0.695135772,-0.278454602,0.080133796,0.39627718925476074,0.8943397817243975,-0.347347291,0.1782750194451596,0.21845885670126533
1710358929020496600,18.78349658203125,-3.746666908,-1.154429078,-2.239888191,0.44965508580207825,0.5785231590270996,-0.680530071,-0.30481869,0.052397310733795166,0.34515732526779175,0.8913510331194993,-0.364083827,0.16485727341310463,0.21391185057277773
1710358929030515500,18.793515380859375,-3.783359289,-1.026596904,-2.313147068,0.4287588596343994,0.6140365,-0.662665188,-0.255708933,0.019142329692840576,0.27101796865463257,0.8875433292698293,-0.381622791,0.15176115270462903,0.2088052151841601
1710358929040534500,18.803534423828125,-3.595320225,-0.980712473,-2.416974545,0.40723106265068054,0.6480811238288879,-0.643547893,-0.171330154,0.000249684,0.23815250396728516,0.8835074741853292,-0.398669168,0.13888460967120958,0.2029500639660272
1710358929050553600,18.81355371,-3.403623343,-0.982532024,-2.340384722,0.38509875535964966,0.6800860166549683,-0.623844504,-0.120114625,0.073713541,0.20839357376098633,0.8793497241429942,-0.414915554,0.12618574069192856,0.1966375509055597
1710358929060572400,18.823572509765626,-3.945252895,-0.71819675,-1.842982888,0.36494842171669006,0.7092453241348267,-0.603144825,-0.174305111,0.3028854727745056,-0.278126359,0.8745651366165251,-0.430530744,0.11432788774886835,0.19159380587453198
1710358929070591500,18.833591552734376,-3.972396851,0.085254677,-2.06276989,0.3492738604545593,0.7412903308868408,-0.573146045,-0.363220423,0.8584564328193665,-0.322621047,0.8671307891519918,-0.449937914,0.10479910068105118,0.18616434935495266
1710358929080610300,18.84361035,-1.613336563,0.17996041476726532,-2.340226173,0.3335781991481781,0.7641231417655945,-0.55212456,-0.360387892,0.7867345213890076,0.24838322401046753,0.8628659729709985,-0.462954617,0.09803436,0.1775521499404421
1710358929090629400,18.85362939453125,-1.694865465,-0.359823823,-2.471447945,0.3144940733909607,0.7802034020423889,-0.540718317,-0.056055933,-0.093908727,-0.097617745,0.8614732127683752,-0.470532764,0.09077319,0.16799756775723265
1710358929100648400,18.86364844,-2.983222723,-0.625819564,-2.485406637,0.2920010983943939,0.8002820014953613,-0.523721516,0.2507082521915436,-0.206043541,0.026117146015167236,0.8581341294969899,-0.481287145,0.080634613,0.15958297802993957
1710358929110667500,18.87366748046875,-3.281879902,-0.528715909,-2.496486425,0.26881203055381775,0.8236932158470154,-0.499269128,0.33557334542274475,-0.118294537,0.088090658,0.852449515,-0.495503198,0.069584598,0.1515402206441436
1710358929120686300,18.883686279296874,-3.086801052,-0.592574239,-2.662508249,0.24460721015930176,0.845847487,-0.474035263,0.18898653984069824,-0.190421402,-0.108713031,0.8465024516676375,-0.509480829,0.058409338,0.14300823774053364
1710358929130705400,18.893705322265625,-2.92612052,-0.558550656,-2.734659433,0.21854381263256073,0.8660176992416382,-0.449724317,-0.019767582,-0.0371297,-0.095136374,0.8408003496265557,-0.522444832,0.046789357,0.13385413385518266
1710358929140724500,18.903724365234375,-2.830950499,-0.3862966,-2.615080357,0.19302447140216827,0.8842038512229919,-0.425352752,-0.15113911,0.22540003061294556,-0.01225391,0.8349786426323752,-0.534823879,0.035875444900608754,0.1244465809532908
1710358929150743300,18.913743408203125,-2.560437918,-0.420864135,-2.582779169,0.1682610809803009,0.9000797867774963,-0.401926249,-0.188585803,0.2935085892677307,0.031580328941345215,0.8292830200633102,-0.54624214,0.025620323915786773,0.11512118605724111
1710358931274783500,21.037783447265625,-0.570220828,1.4113208055496216,-3.776602745,0.6189448237419128,0.019257633,-0.78519839,-0.16852051,0.2193746268749237,0.24932503700256348,0.7870943686935841,-0.189671304,0.26725569,0.5225722182600342
1710358931284802600,21.047802490234375,-0.714458942,1.286577582359314,-3.716091633,0.6282532811164856,0.047785517,-0.776539981,-0.035571277,0.2435658723115921,0.2794850468635559,0.7943058330401964,-0.200764454,0.26725199668007177,0.5072950589809876
1710358931294821400,21.05782129,-0.712669611,1.1270350217819214,-3.674488544,0.6352910399436951,0.076710209,-0.768453598,0.026879489421844482,0.2707020044326782,0.2887783646583557,0.8012068787527896,-0.211581823,0.2664701508962881,0.49223415075034943
1710358931304840400,21.06784033203125,-0.747177243,1.041496753692627,-3.634049654,0.640197754,0.10562624782323837,-0.760913968,-0.002059817,0.2943829894065857,0.30778902769088745,0.8078527214430489,-0.221991182,0.26507157603157583,0.47731658005666117
1710358931314859500,21.077859619140625,-0.876490772,1.1057506799697876,-3.677668571,0.6438544988632202,0.1351826786994934,-0.753111601,-0.096384287,0.31292229890823364,0.35145455598831177,0.8141191766451644,-0.232580587,0.2633447792461545,0.462348179
1710358931324878600,21.087878662109375,-1.044161201,1.2505947351455688,-3.766220808,0.6470640897750854,0.16649329662322998,-0.744035065,-0.165206671,0.2951461970806122,0.44868600368499756,0.8199062193444404,-0.244100192,0.2615292915310233,0.4469580250187141
1710358931334897400,21.09789746,-1.251556993,1.2667293548583984,-3.754027605,0.6495828032493591,0.1994112879037857,-0.73367393,-0.078537762,0.25702497363090515,0.5327462553977966,0.8251031469400942,-0.25651686,0.259542174,0.4313257618186266
1710358931344916500,21.10791650390625,-1.532089353,1.0360826253890991,-3.643941164,0.6500446796417236,0.2337082475423813,-0.723064601,0.14295464754104614,0.28135228157043457,0.5583766102790833,0.8296242064467539,-0.269557403,0.2565277855736951,0.41624036659312796
1710358931354935600,21.11793555,-1.714165449,0.6827442646026611,-3.434106588,0.6473267078399658,0.26854559779167175,-0.713338196,0.3501250743865967,0.3971496820449829,0.5439199805259705,0.8335303589795523,-0.282665394,0.25185549520619055,0.4023632122899502
1710358931364954600,21.12795458984375,-1.613115549,0.3509916365146637,-3.152087212,0.641558051,0.301728219,-0.705240011,0.4220711588859558,0.5037680864334106,0.513940692,0.8370024699862451,-0.294803804,0.24590792850420082,0.3899321571065003
1710358931374973400,21.137973388671874,-1.462130308,0.16932395100593567,-2.930475712,0.6336510181427002,0.3318983316421509,-0.698806107,0.3175209164619446,0.5352587699890137,0.49217164516448975,0.8402454592575176,-0.305402976,0.23942842683812798,0.37866971171513014
1710358931384992500,21.147992431640624,-1.439522982,0.18675753474235535,-2.822524548,0.6248754858970642,0.36004549264907837,-0.692746699,0.10800427198410034,0.5194101333618164,0.45655596256256104,0.8431692029834755,-0.315195578,0.2329772284900598,0.36802074146094177
1710358931395011600,21.158011474609374,-1.573706508,0.3162032663822174,-2.837413549,0.6160076260566711,0.38792723417282104,-0.685599804,-0.068339109,0.4537476599216461,0.4395977258682251,0.8456184353419955,-0.325222462,0.2267828293875645,0.3573925153879595
1710358931405030700,21.16803076171875,-1.976246238,0.344366193,-2.849910736,0.6068716049194336,0.41735580563545227,-0.676403046,-0.093718469,0.3415554463863373,0.47307974100112915,0.8473499224755794,-0.336463066,0.22043387764634612,0.34669832580323406
1710358931415049500,21.178049560546874,-2.57501483,0.12480325996875763,-2.709304571,0.5964241027832031,0.44947877526283264,-0.665016711,0.061000884,0.2583613097667694,0.5184866786003113,0.8479476480714686,-0.349583437,0.2127981560658781,0.3368876549238824
1710358931425069600,21.188069580078125,-3.047635078,-0.213600621,-2.460433006,0.5840574502944946,0.48339566588401794,-0.652077913,0.25818198919296265,0.2400541603565216,0.5289548635482788,0.8472573618723975,-0.364192073,0.20328591764574636,0.3289287209861909
1710358931435088600,21.198088623046875,-3.288060665,-0.455465525,-2.264878988,0.5700007677078247,0.5176383256912231,-0.638082922,0.31485646963119507,0.2794504165649414,0.5109314918518066,0.8455086283678579,-0.379483684,0.19222560174720096,0.32273317070563834
1710358931445107700,21.208107666015625,-3.22491169,-0.542390823,-2.127028942,0.5550786852836609,0.5506701469421387,-0.623418093,0.2084254026412964,0.3530012369155884,0.4163564443588257,0.8431537290225828,-0.394557851,0.1805964257860325,0.31749156221140945
1710358931455126500,21.21812646484375,-3.137605667,-0.550131381,-2.028894424,0.5399085283279419,0.5816476345062256,-0.60842824,0.036354899406433105,0.38991010189056396,0.33880555629730225,0.8405230031607464,-0.408894737,0.1690886686199644,0.31262657071458894
1710358931465145600,21.22814551,-3.149590492,-0.477152258,-1.991207004,0.5248015522956848,0.6112120747566223,-0.592455208,-0.110372841,0.38811659812927246,0.27337878942489624,0.8375246484708789,-0.422914597,0.15784690930304154,0.3078638187083074
1710358931475164700,21.23816455078125,-3.224862576,-0.276179075,-2.074541092,0.5098564624786377,0.6403382420539856,-0.574467897,-0.198882282,0.34542542695999146,0.21414697170257568,0.8340546656660466,-0.437212162,0.14700879934730118,0.3026330627300534
1710358931485183700,21.248183837890625,-3.410464764,-0.120252036,-2.184046984,0.4947722554206848,0.6697904467582703,-0.553697705,-0.198126107,0.261438251,0.1808798909187317,0.8300179143973758,-0.452239689,0.13649326327308403,0.29651149648994446
1710358931495202600,21.25820263671875,-3.613269567,-0.123313926,-2.198944092,0.4790930449962616,0.6996439099311829,-0.530064344,-0.089047849,0.20248621702194214,0.13254255056381226,0.8252015399809003,-0.468126224,0.1258001428411399,0.2899560851655956
1710358931505221600,21.26822168,-3.794626713,-0.215125605,-2.110017061,0.46276989579200745,0.729011595,-0.504366934,0.044920504093170166,0.19544219970703125,0.093249559,0.8195603023464846,-0.484437692,0.11461523528636239,0.2837327810521797
1710358931553710600,21.316710693359376,-3.527128458,-0.267231584,-2.066411972,0.44604405760765076,0.7567158341407776,-0.477939367,0.08624357,0.2380352020263672,0.055713475,0.8596335766418038,-0.440138598,0.25943848366228295,-2.55E-18
1710358931563729700,21.326729736328126,-3.035490751,-0.293194741,-2.033735752,0.42891496419906616,0.7810215950012207,-0.45391345,0.012323468923568726,0.2657466530799866,0.023249447345733643,0.8526085581368132,-0.456845506,0.25364434879727815,-0.003944146
1710358931573748500,21.33674853515625,-2.638606071,-0.287109673,-1.916730046,0.4118470549583435,0.8019110560417175,-0.432805687,-0.096234262,0.30430543422698975,-0.057062358,0.8463665213525696,-0.471347118,0.2478488444507373,-0.008162648
1710358931583767600,21.34676758,-2.550457716,-0.042564381,-1.86929965,0.395823598,0.8205006718635559,-0.412434757,-0.201563954,0.36625176668167114,-0.196665525,0.8402748941657947,-0.48463062,0.2427257290997309,-0.012472463
1710358931593786600,21.35678662109375,-2.164042473,0.2571401596069336,-2.021867037,0.380167156,0.8376312851905823,-0.392233312,-0.305093914,0.3493195176124573,-0.249139309,0.834141238,-0.49693341,0.23862216,-0.018032602
1710358931603805400,21.366805419921874,-1.902613401,0.35194841027259827,-2.142560005,0.363689125,0.8530963659286499,-0.374108285,-0.323238045,0.12432080507278442,-0.198752373,0.8285055732384933,-0.507707959,0.23490099785852567,-0.025156625
1710358931613824500,21.376824462890625,-2.117159843,0.30449244379997253,-2.25680685,0.34595197439193726,0.8681949377059937,-0.355745822,-0.208271921,-0.119217157,-0.135327756,0.8226777826266324,-0.518463502,0.2309170538248194,-0.032778289
1710358931623843600,21.386843505859375,-2.41296792,0.19066627323627472,-2.404677391,0.3263677954673767,0.8838964700698853,-0.334979653,-0.059445739,-0.200256765,-0.097912163,0.8160011024485335,-0.530400982,0.22624095640625547,-0.040401452
1710358931633862700,21.396862548828125,-2.605087757,0.018312498927116394,-2.524003267,0.30463874340057373,0.8998754024505615,-0.312120944,0.04814446,-0.216266394,-0.04682675,0.808556989,-0.543397467,0.22058720791421374,-0.047916974
1710358931643881500,21.406881591796875,-2.659064293,-0.150664017,-2.547300339,0.2813359200954437,0.9152594804763794,-0.288358033,0.096654803,-0.171591818,-0.023028016,0.8007144391231015,-0.556802474,0.2139906442402716,-0.055095721
1710358931653901600,21.416901611328125,-2.707244873,-0.2448726,-2.575302839,0.2571342885494232,0.9296037554740906,-0.26404357,0.082587391,-0.058998168,-0.008478343,0.7925847776097208,-0.570291914,0.20674949206161175,-0.061897002
1710358931663920600,21.426920654296875,-2.408893108,-0.272995293,-2.633113146,0.2320418655872345,0.9425264596939087,-0.240417212,0.025480703,0.061791778,-0.033844158,0.7845223866118786,-0.583246475,0.19903503474882536,-0.068798541
1710358931673939700,21.436939697265625,-2.005817175,-0.228830233,-2.679939747,0.2062152475118637,0.9534012675285339,-0.220230162,-0.044792533,0.070478797,-0.13957195,0.7773636700591856,-0.594483281,0.19098310807235538,-0.076294333
1710358931683958500,21.44695849609375,-1.998110294,-0.077680662,-2.792453051,0.17963899672031403,0.9628843069076538,-0.201454371,-0.087338582,0.071341276,-0.19684577,0.7704397251819156,-0.604812306,0.18296144526500904,-0.084557259
1710358931693977600,21.45697754,-1.900539517,0.08740928,-2.90580225,0.15201319754123688,0.9714065790176392,-0.182377443,-0.084981352,0.1398758888244629,-0.19140172,0.763147942,-0.61492327,0.17515893283723896,-0.093776871
1710358931703996700,21.46699658203125,-1.745009065,0.16944634914398193,-2.94029212,0.123633474,0.978593647,-0.164527729,-0.029151075,0.084059,-0.217750594,0.7559719220567241,-0.62425174,0.1674690982237757,-0.103780569
1710358931714015700,21.47701563,-1.793791771,0.18161620199680328,-2.96476841,0.094889052,0.9845857620239258,-0.146925926,0.060765848,-0.007061779,-0.213257685,0.7486406047049304,-0.633241829,0.15981808815786047,-0.11401929
1710358931724034600,21.48703466796875,-1.688906312,0.1306515485048294,-3.010890245,0.065566719,0.9894106388092041,-0.129490197,0.1288760006427765,-0.012024105,-0.156886682,0.7411451407988009,-0.642012864,0.1519025412115014,-0.124294193
1710358931734053600,21.49705371,-1.476456165,0.12607859075069427,-3.088106632,0.03542969,0.9928917288780212,-0.113627173,0.145768404,-0.048647106,-0.152012959,0.7339257055525911,-0.650067767,0.1435211192787979,-0.134784398
1710358931744072700,21.50707275390625,-1.328675985,0.11871255189180374,-3.151765585,0.004483354,0.9949973821640015,-0.099801935,0.1362331658601761,-0.086214304,-0.148534775,0.7271082535009797,-0.657225217,0.13473695449711093,-0.145652772
1710358931754091800,21.5170918,-1.381369591,0.045767560601234436,-3.208674669,-0.027166113,0.995897114,-0.086321197,0.14035578072071075,-0.080415308,-0.056134768,0.7201679235470188,-0.664137536,0.1255417653746135,-0.15658535
1710358931764110600,21.527110595703125,-1.376235604,-0.060608149,-3.25792551,-0.059443448,0.9955930113792419,-0.072535783,0.1541852355003357,-0.060030639,0.025554053485393524,0.712927363,-0.671056841,0.1158223873320827,-0.167340032
1710358931774129700,21.537129638671875,-1.433469296,-0.162578568,-3.295108795,-0.092195265,0.9940205216407776,-0.058508031,0.15869304537773132,-0.088274062,0.055792100727558136,0.7054296481486428,-0.677941512,0.10555231912693445,-0.177828569
1710358931784148700,21.547148681640625,-1.529106259,-0.174825653,-3.298403263,-0.125111416,0.9911855459213257,-0.043569572,0.1352432370185852,-0.081029356,0.040762015,0.6974328716241792,-0.684971797,0.09502027,-0.188074847
1710358931794167800,21.557167724609375,-1.628827572,-0.072759941,-3.287735939,-0.157790244,0.987082303,-0.027767036,0.094527259,-0.024939299,0.03055948,0.6888660322201052,-0.692050589,0.084749426,-0.198361395
1710358931804186600,21.56718652,-1.603427172,0.021526348,-3.273674965,-0.190169618,0.9816824197769165,-0.011638996,0.059874773025512695,0.042106152,0.04249233,0.6798433121797655,-0.698978085,0.074900859,-0.208884454
1710358931814205700,21.577205810546875,-1.537462592,0.040428665,-3.242117882,-0.222132072,0.975010335,0.003544785,0.05816108,0.097591102,0.041529775,0.6708561209438871,-0.705349494,0.065226406,-0.219499085
1710358931824224800,21.587224853515625,-1.694599152,-0.00779399,-3.165343046,-0.253359556,0.967182994,0.019134903326630592,0.10048171877861023,0.1855270266532898,0.11186182498931885,0.6615342255668671,-0.711662544,0.05571243,-0.229793543
1710358931834243600,21.59724365234375,-1.821470857,-0.072824925,-3.03473258,-0.283282191,0.9583479166030884,0.036342587,0.16649135947227478,0.34431028366088867,0.16048061847686768,0.651549638,-0.718334662,0.046546822,-0.239399082
1710358931844263700,21.60726367,-1.726288676,-0.126416773,-2.907669067,-0.311608613,0.9486920237541199,0.053699888,0.21595126390457153,0.4232562780380249,0.13506674766540527,0.641489429,-0.724866269,0.037667441643496925,-0.248276938
1710358931854282500,21.617282470703124,-1.532444835,-0.147774309,-2.806912422,-0.338528603,0.9383790493011475,0.069594659,0.21307078003883362,0.3930572271347046,0.061524271965026855,0.6319474590276487,-0.730728391,0.028867809,-0.256603193
1710358931864301600,21.627301513671874,-1.341034174,-0.115259521,-2.721200705,-0.364261389,0.9275493025779724,0.083462365,0.15419360995292664,0.3342457413673401,-0.000515468,0.6230911653376683,-0.735747546,0.020167608877306523,-0.264624675
1710358931874320600,21.637320556640624,-1.26672399,-0.066725165,-2.673667192,-0.389098704,0.9162022471427917,0.095791072,0.085448742,0.315670371,0.012287020683288574,0.6146706154902527,-0.740107779,0.011662475533497864,-0.27255211
1710358931884339500,21.64733935546875,-1.220232368,-0.039134547,-2.604744911,-0.413151115,0.9043172597885132,0.10731510818004608,0.048038750886917114,0.3601175546646118,0.07461559,0.6063962148118287,-0.74407389,0.003405973,-0.280403497
1710358931894358500,21.657358642578124,-1.264168978,-0.079202555,-2.494543552,-0.436052769,0.8920601010322571,0.11868750303983688,0.059328526,0.39697182178497314,0.14159701764583588,0.5981372453769903,-0.747879152,-0.004530406,-0.287902907
1710358931904377600,21.667377685546874,-1.273962975,-0.175213769,-2.356182814,-0.457440585,0.8796034455299377,0.1305607557296753,0.082425237,0.42351245880126953,0.13378262519836426,0.5898038345833936,-0.751752883,-0.012164718,-0.294705209
1710358931914396700,21.677396728515625,-1.215304017,-0.240751773,-2.172269344,-0.477004051,0.8672770261764526,0.1424693614244461,0.075346977,0.4559955596923828,0.082719892,0.5816957363096239,-0.75554923,-0.019494704,-0.300658154
1710358931924415500,21.68741552734375,-1.117088675,-0.2324166,-1.951393723,-0.494434357,0.8555110692977905,0.15373879671096802,0.030490816,0.510409951,0.058007463812828064,0.5741013960095893,-0.759065789,-0.026239794,-0.305840248
1710358931934434600,21.69743457,-1.013401151,-0.182513505,-1.755155325,-0.509896219,0.84448719,0.16385158896446228,-0.029547751,0.5711774826049805,0.044064745,0.5671531100827446,-0.762158177,-0.032259976,-0.31050216
1710358931944453600,21.70745361328125,-0.990420759,-0.15198487,-1.53465879,-0.523475766,0.8342764377593994,0.17307859659194946,-0.062431276,0.6014383435249329,0.032762647,0.560734022,-0.764941584,-0.037465587,-0.31470331
1710358931954472400,21.717472412109377,-1.00838995,-0.142767727,-1.277746916,-0.534912527,0.8250361680984497,0.18216444551944733,-0.047881663,0.60832864,0.014643535017967224,0.5546431422116633,-0.767686561,-0.041708139,-0.318258981
1710358931964491500,21.727491455078123,-0.948050082,-0.182244301,-1.023066401,-0.544076204,0.8169768452644348,0.19112838804721832,-0.000509977,0.5929352641105652,0.00041531,0.5489693837719857,-0.770415136,-0.044996825,-0.321042794
1710358931974510600,21.737510498046873,-0.865183234,-0.189758837,-0.81816417,-0.551173091,0.81016475,0.19960267841815948,0.044184625,0.5838171243667603,-0.010149524,0.5439299069296161,-0.77300387,-0.047606293,-0.323015285
1710358931984529700,21.74752978515625,-0.756136119,-0.124735102,-0.634244978,-0.556740642,0.8044797778129578,0.20700818300247192,0.071404278,0.61174953,-0.064811468,0.5395752775542115,-0.775274256,-0.049537092,-0.32458364
1710358931994548500,21.757548583984374,-0.604701877,-0.121970206,-0.470258415,-0.560908258,0.7999617457389832,0.21317510306835175,0.10651671886444092,0.6089891791343689,-0.109567761,0.5359892583968737,-0.777173495,-0.050881366,-0.325773168
1710358932004567600,21.767567626953124,-0.403143406,-0.135673493,-0.352778375,-0.563907623,0.796565831,0.21792541444301605,0.15771853923797607,0.5495494604110718,-0.182616442,0.5333224845231032,-0.778626582,-0.051993746,-0.326503589
1710358932014586600,21.777586669921874,-0.298104882,-0.141207442,-0.278710544,-0.566112161,0.7940325140953064,0.22142693400382996,0.20043516159057617,0.46149134635925293,-0.24681744,0.5314395948013098,-0.779679947,-0.053034386,-0.326892488
1710358932024605700,21.787605712890624,-0.255592585,-0.113648519,-0.189156964,-0.567697465,0.7920675873756409,0.22438523173332214,0.225335956,0.4193277359008789,-0.287449718,0.5299243683167747,-0.78057274,-0.053840631,-0.327089662
1710358932034625500,21.79762548828125,-0.139010042,-0.074476719,-0.103166424,-0.568621397,0.790804923,0.2264895886182785,0.24081677198410034,0.3961610794067383,-0.31148088,0.5288879239487477,-0.781213144,-0.054321393,-0.327158837
1710358934038437000,23.80143701171875,-0.477969468,0.16361068189144135,-1.305603862,0.5952604413032532,-0.094607733,-0.79794389,-0.081588507,0.27742329239845276,-0.055235982,0.8861751438489444,-0.064990413,0.3111338823928811,0.33714346665542083
1710358934048456000,23.81145605,-0.49737832,0.1858384907245636,-1.278713584,0.5977784991264343,-0.082968064,-0.797356427,-0.057724118,0.2690795361995697,-0.053733051,0.8879097899897895,-0.069467481,0.3106381534682161,0.33210630389709395
1710358934058475000,23.82147509765625,-0.45100227,0.26122650504112244,-1.277211547,0.6005171537399292,-0.071474001,-0.796411097,-0.059013247,0.23541446030139923,-0.076818824,0.8895032062274193,-0.07395219,0.3103635227554171,0.3270929231436046
1710358934068494000,23.83149414,-0.395273775,0.3594987392425537,-1.303262591,0.6038526296615601,-0.060333271,-0.794809401,-0.064530671,0.1863251030445099,-0.111059129,0.8909543445213347,-0.078343925,0.31057612510559734,0.32187759392268317
1710358934078513200,23.84151318359375,-0.338071465,0.4104066491127014,-1.332455397,0.6076662540435791,-0.049407937,-0.792654157,-0.028274775,0.1433258056640625,-0.120721638,0.8923096167249873,-0.082659607,0.31119177393907527,0.316402743
1710358934088532000,23.851531982421875,-0.32040298,0.3943760395050049,-1.367395878,0.6114810705184937,-0.038590897,-0.790317416,0.044082344,0.099198826,-0.103344023,0.893657178,-0.086856812,0.3119249458187537,0.31070186355095136
1710358934098551000,23.861551025390625,-0.363216251,0.3657139241695404,-1.401479244,0.6149284839630127,-0.027389886,-0.788107097,0.10466080904006958,0.04882849,-0.090371907,0.8950490272601164,-0.091131588,0.31247638471269495,0.3048620192241711
1710358934108570000,23.871570068359375,-0.416471988,0.36417433619499207,-1.44481945,0.6180816292762756,-0.015522946,-0.785960674,0.11968082189559937,-0.008906343,-0.118076801,0.8964493869376986,-0.095661322,0.3128395549131388,0.2989296107857823
1710358934118589000,23.88158887,-0.432873607,0.4108734130859375,-1.503453851,0.6212441921234131,-0.003016653,-0.783611238,0.077257454,-0.066380307,-0.143253326,0.8978225334981281,-0.100458941,0.3132129852946135,0.29278041240130054
1710358934128608000,23.89160791015625,-0.496176958,0.501914382,-1.549229264,0.6247494220733643,0.010135814547538757,-0.780759573,-0.006402194,-0.089573033,-0.148500681,0.899086472,-0.105595144,0.3137991056984858,0.28639743295282916
1710358934138627000,23.90162695,-0.509819567,0.5914052128791809,-1.587678432,0.628758967,0.023972637951374054,-0.77723068,-0.09105444,-0.063309774,-0.128592014,0.9001738693174444,-0.111140637,0.31469415391497074,0.2798259125287706
1710358934148646100,23.911646240234376,-0.483522147,0.6587120890617371,-1.629506826,0.6331205368041992,0.037976798,-0.773121059,-0.145953119,-0.040311359,-0.105464697,0.9011293319226994,-0.116777716,0.315915226,0.2729954742758482
1710358934158665000,23.92166504,-0.487046838,0.7094559669494629,-1.70314002,0.6376566886901855,0.052287709,-0.768544018,-0.172416151,-0.052119851,-0.059687734,0.9019997865866134,-0.122516134,0.31736064912138956,0.26583532571334034
1710358934168684000,23.93168408203125,-0.542001665,0.7376303672790527,-1.819432497,0.6421512961387634,0.06754344,-0.763596535,-0.190704703,-0.081398383,-0.00297451,0.9028316069167992,-0.12861007,0.31884353101793395,0.25825054781209533
1710358934178704100,23.9417041,-0.572348177,0.7639855742454529,-1.967835069,0.646432638,0.084019646,-0.758330822,-0.223245323,-0.134770349,0.060836315,0.9036709019700259,-0.135123435,0.3202752665273339,0.2500889092568506
1710358934188723200,23.95172314453125,-0.460614145,0.790343165,-2.132388592,0.6504251956939697,0.1014716848731041,-0.75276202,-0.263645351,-0.185593337,0.1100313663482666,0.9045608313200538,-0.141852701,0.32170917572593183,0.2411449855917247
1710358934198742000,23.961741943359375,-0.760168612,0.9949407577514648,-2.439095497,0.6545639634132385,0.12048915773630142,-0.746343374,-0.285057127,-0.189382553,0.17223143577575684,0.9054057015283874,-0.149093531,0.32341836635001814,0.23111103453595142
1710358934208761000,23.971760986328125,0.11498522758483887,0.8619470000267029,-2.610844135,0.6582955121994019,0.1400819569826126,-0.739610851,-0.257309735,-0.17085892,0.17892664670944214,0.9064638437713616,-0.156010775,0.3253539992039238,0.21938303534936954
1710358934218780200,23.98178027,-0.240175277,0.6599218845367432,-2.739727974,0.6599068641662598,0.15744413435459137,-0.734666109,-0.22170496,-0.391361356,0.054047883,0.908080154,-0.161052637,0.32669402869486946,0.20669687876472587
1710358934228799200,23.99179931640625,-0.590056062,0.6896832585334778,-2.956984758,0.6598790287971497,0.17970561981201172,-0.729565322,-0.291577637,-0.358584374,0.3573272228240967,0.9095010596507848,-0.168471044,0.32685598845693675,0.1938828958123457
1710358934238818000,24.001818115234375,-0.67119348,0.7838351130485535,-3.028892517,0.6595574617385864,0.20409615337848663,-0.72341466,-0.420467436,-0.265024453,0.29491734504699707,0.9105432712972674,-0.176949925,0.3270800992708814,0.18060555771941028
1710358934248837000,24.011837158203125,-0.746409655,0.713040292,-3.087605238,0.6583936214447021,0.22941994667053223,-0.716857314,-0.467826545,-0.310718745,0.25089967250823975,0.9113159630169206,-0.185868962,0.32714532842822197,0.16712871370073282
1710358934258856000,24.02185595703125,-1.023376107,0.5062231421470642,-3.189119339,0.6551743149757385,0.2562326192855835,-0.710697949,-0.407066405,-0.242545456,0.3947189450263977,0.9119987657274483,-0.195446166,0.32626957136274154,0.15364702350028522
1710358934268875000,24.031875,-1.21252501,0.2975847125053406,-3.253587484,0.6492391228675842,0.28539520502090454,-0.705009401,-0.315117359,-0.148218632,0.6337661743164062,0.9125849485482619,-0.206191001,0.3240070397321257,0.14033401475120322
1710358934278893800,24.041893798828124,-1.363843083,0.082000613,-3.244776011,0.6408023238182068,0.31543898582458496,-0.69990766,-0.236062884,-0.125573814,0.656237006,0.9130927583191703,-0.21743826,0.320572582,0.12734030110208533
1710358934288913000,24.051912841796874,-1.572692156,-0.140385315,-3.278512955,0.629776657,0.3464474081993103,-0.695237875,-0.175644517,-0.103588462,0.6503312587738037,0.9134766399813736,-0.229331429,0.31589264682091556,0.11480228261948854
1710358934298932000,24.061931884765624,-1.735259771,-0.296052754,-3.278787613,0.6162973642349243,0.37845733761787415,-0.690613925,-0.137629151,-0.038567781,0.7033703923225403,0.9136586281225085,-0.24194597,0.31008899371296245,0.10263941179056117
1710358934308950800,24.07195068359375,-1.859935045,-0.436588824,-3.24512887,0.6008925437927246,0.41076865792274475,-0.685709298,-0.095384121,0.006986469,0.6210121512413025,0.9135558539142844,-0.255029852,0.3034882636331236,0.090941505
1710358934318969900,24.081969970703124,-1.967542529,-0.618912876,-3.240859509,0.5834193229675293,0.4430720806121826,-0.680668175,-0.050857008,0.010144531726837158,0.5615581274032593,0.913228297,-0.268411558,0.29600869243688266,0.079676696
1710358934328990000,24.091989990234374,-2.158710718,-0.741788447,-3.249069929,0.5638086199760437,0.47573885321617126,-0.675124049,-0.033367336,-0.002853662,0.505370021,0.9125948632664048,-0.282333661,0.28762074110158986,0.068794838
1710358934339009000,24.102009033203124,-2.252387285,-0.790524423,-3.263888836,0.5425671339035034,0.5086835622787476,-0.668477356,-0.06240356,0.008940339,0.40128082036972046,0.9115123531103946,-0.296817464,0.2786767261114739,0.058171360825527346
1710358934349028000,24.112028076171875,-2.320842981,-0.770660698,-3.290614367,0.5200929641723633,0.5413097143173218,-0.660671711,-0.118771553,0.019633889198303223,0.36608558893203735,0.9099865890820317,-0.311507024,0.26949493233121397,0.047542101112021624
1710358934359047000,24.12204688,-2.497362375,-0.702829361,-3.291083097,0.4968201816082001,0.5739701986312866,-0.650943875,-0.168252707,0.027760148,0.35158175230026245,0.9078046915635726,-0.32671739,0.26035324145049826,0.036913259
1710358934369066000,24.13206591796875,-2.708629608,-0.503846228,-3.224440098,0.4735493063926697,0.6065486669540405,-0.638631165,-0.224296987,0.066974342,0.24719756841659546,0.9047729620314948,-0.342560526,0.25166785341800646,0.026484035
1710358934379085000,24.14208496,-2.791520834,-0.155737609,-3.224293947,0.45140448212623596,0.6390342116355896,-0.622791588,-0.278400332,0.14090359210968018,0.21359670162200928,0.9006341412136903,-0.359092289,0.2442476851693749,0.015941425
1710358934389104000,24.152104248046875,-2.712086439,-0.10891629,-3.284356833,0.42945224046707153,0.6702131032943726,-0.605297685,-0.192254335,0.150130033,0.3302885890007019,0.8958938477957358,-0.375325403,0.2376593901764469,0.004818567
1710358934399123000,24.16212305,-2.932962418,-0.315811306,-3.417698622,0.4051246643066406,0.7010312080383301,-0.586880922,0.025432586669921875,0.1192966103553772,0.30866754055023193,0.8907290953198062,-0.391836953,0.23026794885481247,-0.006492554
1710358934409142000,24.17214208984375,-3.069685459,-0.410288006,-3.393651009,0.3784211575984955,0.7318965196609497,-0.56667906,0.1677367091178894,0.18486690521240234,0.19482237100601196,0.8848913721430837,-0.409157483,0.22192484179968652,-0.017520886
1710358934419161000,24.18216113,-3.090259552,-0.288807243,-3.230300665,0.3515494167804718,0.7611657381057739,-0.545013487,0.1519448161125183,0.23125070333480835,0.046508967876434326,0.8784754877352184,-0.426403998,0.21371213872827222,-0.028062997
1710358934429180000,24.192179931640624,-3.151652575,0.013197897002100945,-3.024295568,0.32653459906578064,0.7884752154350281,-0.521231234,0.039004952,0.2780989408493042,-0.178994536,0.8712973912029789,-0.443413565,0.206806171,-0.038163867
1710358934439199000,24.202198974609374,-2.955650568,0.22279459238052368,-2.943347216,0.3033254146575928,0.8135760426521301,-0.496072531,-0.093211889,0.3651655316352844,-0.367727458,0.8635448165262929,-0.459822315,0.20131362520029847,-0.048237387
1710358934449218000,24.212218017578124,-2.3495996,0.2672262489795685,-2.976111174,0.28008678555488586,0.8351680040359497,-0.473334998,-0.198421746,0.28566646575927734,-0.366523981,0.8562694857773346,-0.474182128,0.19617291264117687,-0.058908784
1710358934459237000,24.222237060546874,-2.037491322,0.2512897551059723,-2.99694252,0.25605303049087524,0.8531668186187744,-0.454470545,-0.206202567,-0.05931294,-0.099987984,0.8498842157446906,-0.486163295,0.19081399924313638,-0.070230103
1710358934469256000,24.23225586,-2.516783953,0.016621338203549385,-3.11603713,0.23042602837085724,0.8705564737319946,-0.434781998,-0.075946048,-0.360592425,0.2078380584716797,0.8430666336050964,-0.498455472,0.18480028246901173,-0.081423391
1710358934479275000,24.24227490234375,-3.22586751,-0.408930212,-3.287935257,0.20131158828735352,0.8896893858909607,-0.40978843,0.099149212,-0.386011958,0.4201492369174957,0.8345470795147754,-0.513558706,0.17709669802530395,-0.091790366
1710358934489294000,24.252294189453124,-3.60476613,-0.669793248,-3.301875114,0.16932231187820435,0.9094469547271729,-0.379784703,0.16643208265304565,-0.250587583,0.4957820773124695,0.8244222933052899,-0.530988925,0.16780468578882687,-0.101095839
1710358934499314200,24.262314208984375,-3.607444763,-0.724871099,-3.23636508,0.13663458824157715,0.9276814460754395,-0.347474545,0.10004448890686035,-0.054176569,0.390656978,0.813458595,-0.548914551,0.1579732342030355,-0.109648018
1710358934509333200,24.272333251953125,-3.291072607,-0.620840311,-3.141117573,0.10444719344377518,0.9430619478225708,-0.31579259,-0.022354938,0.1467512845993042,0.20566996932029724,0.8024799232118889,-0.565791519,0.1482689092582373,-0.117992627
1710358934519352000,24.28235205078125,-2.811985016,-0.386370689,-3.055313587,0.073480532,0.9550393223762512,-0.28722924,-0.133935884,0.24523240327835083,0.026853322982788086,0.7921879005991765,-0.580518577,0.13922488623005766,-0.126700517
1710358934529371100,24.29237109,-2.436619282,-0.21105215,-3.044949055,0.043379433,0.9640127420425415,-0.26229322,-0.169188172,0.23194068670272827,-0.053380549,0.7827019466552514,-0.593071738,0.13084073774283345,-0.13610425
1710358934539390200,24.30239013671875,-2.414101601,-0.180106044,-3.059784174,0.013295446522533894,0.9709094166755676,-0.239077538,-0.109227493,0.18257874250411987,-0.012158364,0.773464182,-0.604501072,0.12263640111801612,-0.145917261
1710358934549409000,24.312408935546873,-2.576033592,-0.171464622,-3.074432373,-0.017029213,0.976530135,-0.214707643,-0.010100946,0.14586085081100464,0.080384582,0.7636197051106137,-0.616072984,0.11445634665700885,-0.155688905
1710358934559428000,24.322427978515623,-2.59186101,-0.081191666,-3.085246325,-0.047522206,0.9807872772216797,-0.189204171,0.025534254,0.092836499,0.0742293,0.7531244601087301,-0.627749093,0.10643771430089233,-0.165546953
1710358934569447200,24.33244727,-2.43625474,0.062546857,-3.061162949,-0.077815987,0.9833223223686218,-0.164383844,-0.008716628,0.07624805,-0.015608773,0.7424992535805744,-0.638785807,0.098796626,-0.175746571
1710358934579466000,24.342466064453124,-2.203568459,0.13234074413776398,-3.010719538,-0.107590787,0.9840627908706665,-0.14157939,-0.025740549,0.1816781759262085,-0.049369022,0.7322025596768045,-0.648720775,0.091496783,-0.186196551
1710358934589485000,24.352485107421874,-1.891606808,0.10585241764783859,-2.967982769,-0.136889398,0.9831058382987976,-0.121509016,0.00776948,0.31509673595428467,-0.042416096,0.7225726906745691,-0.657395378,0.084123771,-0.196579165
1710358934599504000,24.36250391,-1.628340721,0.093586698,-2.962966204,-0.16593796,0.9805896878242493,-0.104444593,0.049238712,0.3342602252960205,-0.031953625,0.7137456487712269,-0.664783725,0.076421876,-0.20685639
1710358934609523000,24.37252294921875,-1.556613564,0.073434025,-2.995752573,-0.195067421,0.9767380356788635,-0.089059658,0.078688592,0.27304840087890625,-0.014242232,0.7052455878658689,-0.671405811,0.068442735,-0.217160238
1710358934619542000,24.38254199,-1.54471004,0.020245101302862167,-3.031103373,-0.224458888,0.9716656804084778,-0.074054852,0.10569970309734344,0.232527494,-0.020061247,0.6966442258283114,-0.677757663,0.060142518,-0.227407803
1710358934629560800,24.392560791015626,-1.608032346,-0.021288494,-3.046585083,-0.253989905,0.9654203653335571,-0.058760833,0.11260190606117249,0.23160117864608765,0.002105057,0.6877269829199208,-0.684074449,0.051591977,-0.237512371
1710358934639580000,24.402579833984376,-1.619921923,-0.02428061,-3.010801315,-0.283224106,0.958085299,-0.043093301,0.08522597,0.2848958373069763,0.008028682,0.6784758665860957,-0.690363158,0.043035556,-0.24742142
1710358934649600000,24.41260009765625,-1.567265153,-0.042267069,-2.928427935,-0.311646193,0.9497931599617004,-0.02774591,0.043366104,0.3564813733100891,-0.002420604,0.6691796551408172,-0.696367554,0.034630542949258214,-0.257044065
1710358934659619000,24.42261914,-1.415997386,-0.093954176,-2.820589542,-0.338912278,0.9407239556312561,-0.013300369,0.014312028884887695,0.4125932455062866,0.008554997,0.6601591434992798,-0.701896263,0.026295465714142523,-0.266158032
1710358934669638000,24.432637939453127,-1.190672636,-0.14629434,-2.687368631,-0.364768863,0.9310979247093201,-0.000702779,0.002204746,0.4598933458328247,0.023301124572753906,0.6518567339968895,-0.706630594,0.017939160735171787,-0.274652974
1710358934679657000,24.442656982421877,-1.01790297,-0.200851813,-2.549721956,-0.389050424,0.9211596250534058,0.010231763124465942,0.009533823,0.512998641,-0.000893355,0.6442868492110215,-0.710649929,0.009620833,-0.282450999
1710358934689676000,24.452676025390623,-0.806763351,-0.210747316,-2.449351549,-0.411960721,0.910994828,0.019412430003285408,0.019367337226867676,0.535843551,-0.041507006,0.6374646403069484,-0.713935863,0.001341128,-0.289711286
1710358934699695000,24.462695068359373,-0.781772971,-0.236274466,-2.339356184,-0.433658808,0.9006593227386475,0.027440999,0.034992397,0.4860747456550598,-0.046087146,0.6311428151243164,-0.716710701,-0.006802234,-0.296543962
1710358934709714000,24.47271387,-0.832401574,-0.282945544,-2.20113349,-0.453965485,0.8902978301048279,0.035850722,0.063111573,0.4844886064529419,-0.034385804,0.6248050623242604,-0.719522769,-0.014572102,-0.302809079
1710358934719733000,24.48273291015625,-0.840744972,-0.323282897,-2.027938843,-0.47263059,0.8801265954971313,0.044695887714624405,0.080174506,0.5445103049278259,-0.034075741,0.6185097328688273,-0.722404786,-0.021892206,-0.308379406
1710358934729752000,24.49275195,-0.815779448,-0.338261873,-1.810222745,-0.489316672,0.870456874,0.053614445,0.070462793,0.6172905564308167,-0.0197246,0.6124488544020582,-0.725251982,-0.02857946,-0.31320822
1710358934739771100,24.502771240234374,-0.709644496,-0.341354638,-1.577687025,-0.50381875,0.8615856170654297,0.061944555,0.050525844,0.6651784181594849,-0.023553371,0.6069397685710337,-0.727857184,-0.034586084,-0.317256888
1710358934749790000,24.51279004,-0.656741619,-0.343044698,-1.349570751,-0.516160667,0.8536638617515564,0.069546357,0.053269922733306885,0.6813552379608154,-0.032726757,0.6020500686471875,-0.73019411,-0.039871544,-0.320566355
1710358934759809000,24.52280908203125,-0.566331267,-0.342003554,-1.160115838,-0.526579142,0.8466726541519165,0.076551363,0.084028423,0.6963419318199158,-0.031949759,0.597713194,-0.732322046,-0.044498361,-0.323207949
1710358934769828000,24.53282813,-0.503637016,-0.319427401,-0.964295268,-0.535313904,0.8405834436416626,0.08281751,0.11342358589172363,0.6830372214317322,-0.04961431,0.5939511671278935,-0.734202235,-0.048536911,-0.325289673
1710358934779847000,24.542846923828126,-0.45682475,-0.279924631,-0.767214715,-0.542319357,0.835501492,0.088472061,0.12973690032958984,0.6520626544952393,-0.068101406,0.5906914515376479,-0.735901076,-0.051823144,-0.326875708
1710358934789866000,24.552865966796876,-0.330776542,-0.231829271,-0.613152742,-0.547824681,0.8313844203948975,0.093212716,0.15095871686935425,0.6072907447814941,-0.118389599,0.5880206148108488,-0.737319647,-0.054461888,-0.328063453
1710358934799885000,24.562885009765626,-0.208530515,-0.196691051,-0.498099625,-0.552229166,0.8280771374702454,0.096600473,0.19610416889190674,0.546373725,-0.16866754,0.5860604990914289,-0.738299841,-0.056688444,-0.328987906
1710358934809905200,24.57290527,-0.121399879,-0.179942429,-0.388846904,-0.555723429,0.8254485130310059,0.099027082,0.25202769,0.48905032873153687,-0.205640092,0.5846533284066092,-0.738971795,-0.05860229,-0.329646793
1710358934819924200,24.58292431640625,0.011411160230636597,-0.155933172,-0.309194684,-0.558410406,0.8234658241271973,0.10041146725416183,0.2894282937049866,0.40945982933044434,-0.244606823,0.5838337599215325,-0.73930447,-0.060287941,-0.330049495
1710358934829943000,24.592943115234377,0.086469956,-0.129153222,-0.258765608,-0.560627699,0.8219165205955505,0.10074806958436966,0.29118794202804565,0.33473026752471924,-0.308465838,0.5835227592765876,-0.739288807,-0.061855418,-0.330344245
1710358934839962000,24.602962158203123,0.10891188681125641,-0.106175214,-0.152862608,-0.562225759,0.8208405375480652,0.10061459988355637,0.27931249141693115,0.3346465826034546,-0.309659958,0.583494466,-0.739136525,-0.063122878,-0.330495143
1710358934849981200,24.612981201171873,0.1842481791973114,-0.113126859,-0.050953284,-0.562940001,0.8204230666160583,0.10002492368221283,0.26789599657058716,0.3706323504447937,-0.302615762,0.5838351575078912,-0.738857021,-0.064052833,-0.330339566
1710358939627591700,29.3905918,-1.821490765,-0.037391193,-1.879140019,0.5609062314033508,0.10095783323049545,-0.821700513,-0.120308638,0.040292799,0.23518317937850952,0.9360480837339873,-0.109201776,0.27789333886242834,0.18618364855713962
1710358939637610500,29.400610595703125,-1.910563707,-0.024279971,-1.93091166,0.5584640502929688,0.1270027607679367,-0.819748878,-0.11113739,0.091472611,0.1653604507446289,0.936764827,-0.12057258,0.2749323709946549,0.1798506710468355
1710358939647629600,29.410629638671875,-2.009661674,-0.007810183,-1.9741292,0.5555774569511414,0.15399090945720673,-0.817080498,-0.102620304,0.12739644944667816,0.097521782,0.9372740969499681,-0.132439311,0.2718815665141091,0.1733713644707113
1710358939657648600,29.420648681640625,-2.116432905,0.007510664,-1.976942778,0.5522387623786926,0.18182574212551117,-0.813616514,-0.106605768,0.13462631404399872,0.048189878,0.9375296347202049,-0.144804993,0.2687438500995123,0.16687303579990598
1710358939667667700,29.430667724609375,-2.157799482,0.087078191,-1.940183997,0.5487173795700073,0.2101084142923355,-0.809174716,-0.135677159,0.13356533646583557,0.040391207,0.9374543506802671,-0.157556601,0.2656850471301453,0.16052056619538319
1710358939677686500,29.44068652,-2.109694481,0.22705505788326263,-1.908088923,0.5456635355949402,0.237873837,-0.803534329,-0.174981773,0.14763951301574707,0.039236844,0.937012267,-0.170236832,0.26315823858676496,0.1541927141431068
1710358939687705600,29.45070556640625,-2.044831276,0.2893834114074707,-1.915780425,0.5429905652999878,0.2649482786655426,-0.796846092,-0.167639554,0.17627489566802979,0.004853904,0.9362676518837978,-0.182698887,0.2611476121282533,0.14773605392090264
1710358939697724700,29.46072461,-2.050526857,0.25354188680648804,-1.960615754,0.5397546887397766,0.2916962206363678,-0.789669693,-0.078924,0.2166351079940796,-0.051745653,0.9353826619169016,-0.19499586,0.25911727389730166,0.14104671943786504
1710358939707743500,29.470743408203123,-2.089888334,0.20384837687015533,-1.963573217,0.5355602502822876,0.31863173842430115,-0.782079935,0.021156668663024902,0.23343130946159363,-0.082345724,0.9343481859721744,-0.207416403,0.2567848738357366,0.13428857759276613
1710358939717762600,29.480762451171874,-2.056623697,0.13046331703662872,-1.907832384,0.5303707718849182,0.3451443612575531,-0.77432698,0.053979814,0.2356356978416443,-0.097483873,0.933197159,-0.219697227,0.2541055570018707,0.1276975310554329
1710358939727782400,29.490782470703124,-2.25775671,0.20720364153385162,-1.827731729,0.5248913168907166,0.3716808259487152,-0.765730023,-0.007450581,0.21398204565048218,-0.064531147,0.9317183705014549,-0.232246152,0.25138957758558933,0.12151497581251636
1710358939737801500,29.500801513671874,-2.319271326,0.3235604465007782,-1.743800044,0.5200685262680054,0.3984948396682739,-0.755467176,-0.130557418,0.20958319306373596,0.010273754596710205,0.9296978043348137,-0.245331985,0.2491558469852922,0.1157395624132631
1710358939747820500,29.510820556640624,-2.372262716,0.3713498115539551,-1.716801167,0.5155701041221619,0.42510175704956055,-0.743959725,-0.233587682,0.22614338994026184,-0.046353996,0.927275933,-0.258602069,0.24727538193017695,0.11017914410850639
1710358939757839400,29.52083935546875,-2.26185441,0.4477974772453308,-1.701238513,0.5110682845115662,0.45118412375450134,-0.73160249,-0.300786853,0.20825502276420593,-0.010310292,0.9245883276565372,-0.271776613,0.24563433833647377,0.10458402687974463
1710358939767858400,29.5308584,-2.133595705,0.5359746813774109,-1.636875749,0.5068682432174683,0.47550955414772034,-0.719009936,-0.363527119,0.18624892830848694,-0.011992812,0.9218081534816969,-0.284141106,0.24445625221149136,0.098867643
1710358939777877500,29.54087744140625,-2.197227716,0.6564272046089172,-1.701084018,0.5030224919319153,0.499394029,-0.705389261,-0.439835846,0.12845942378044128,-0.043557882,0.9187191344086679,-0.296463772,0.24375109827366098,0.093004428
1710358939787896600,29.55089648,-2.123835802,0.7282487154006958,-1.865302801,0.4987642467021942,0.5234819054603577,-0.690797329,-0.513794124,0.11152791976928711,0.026536465,0.9153870477699165,-0.308897355,0.24327711447058092,0.086402174
1710358939797915400,29.560915283203126,-2.15316081,0.7254300713539124,-2.013434649,0.4933454692363739,0.5476663112640381,-0.675775051,-0.530821025,0.039232552,0.10549312829971313,0.9119511008024214,-0.321280339,0.24267552415467827,0.078948245
1710358939807934500,29.57093457,-2.353794098,0.6099423170089722,-2.114951849,0.48622986674308777,0.5728618502616882,-0.659855962,-0.467446268,-0.080872655,0.15802490711212158,0.908222335,-0.334290546,0.24149916361527393,0.071135723
1710358939817953500,29.58095361328125,-2.608893633,0.4652230441570282,-2.226238966,0.4770239591598511,0.5995402932167053,-0.642650485,-0.363406986,-0.143088818,0.2610282301902771,0.9040511617298279,-0.348368802,0.2394032669952184,0.063378731
1710358939827972400,29.590972412109377,-2.749503374,0.38417690992355347,-2.360899687,0.4655674993991852,0.6274088621139526,-0.624183536,-0.286337733,-0.180784047,0.3404921889305115,0.8994532338695326,-0.363348739,0.23640201205175865,0.055459642017530404
1710358939837991400,29.600991455078123,-2.869277716,0.3245266377925873,-2.431470156,0.4523371458053589,0.6557525992393494,-0.604466558,-0.265264362,-0.19594413,0.3571521043777466,0.8944241768941292,-0.378894694,0.2328208158185267,0.047316592
1710358939848010500,29.611010498046873,-2.957874775,0.2692039906978607,-2.507296085,0.4375438094139099,0.6840931177139282,-0.58358562,-0.273450762,-0.150569499,0.29896342754364014,0.8889676395244575,-0.394830951,0.22872626781600994,0.039109537
1710358943193861400,32.95686133,-0.956850827,0.5036953091621399,-1.882640004,0.6030747294425964,0.15067128837108612,-0.783325672,-0.033082664,0.35318922996520996,-0.011550426,0.9190165345331309,-0.151016983,0.2924568949493251,0.216960051
1710358943203880200,32.96688012695312,-0.968940198,0.48664700984954834,-1.880146503,0.6039272546768188,0.16958126425743103,-0.778790176,0.011902272701263428,0.31097906827926636,-0.000537217,0.9195519306361206,-0.158736805,0.29224569349978124,0.20933107386157876
1710358943213899300,32.97689916992187,-0.96302855,0.4792868196964264,-1.896815419,0.6042841076850891,0.188545361,-0.774139106,0.00902766,0.2774123251438141,-0.002731621,0.9200029196812968,-0.166457304,0.29192878331255606,0.20165371995900103
1710358943223918300,32.98691845703125,-0.92125684,0.5037298798561096,-1.93146348,0.6042670011520386,0.2074226588010788,-0.76930964,-0.020542026,0.24974596500396729,-0.012688041,0.9203775989248882,-0.174088571,0.29161337085718064,0.1938041819399535
1710358943233937400,32.9969375,-0.856995285,0.5263838171958923,-2.00399375,0.6039721965789795,0.22618961334228516,-0.764235497,-0.052916288,0.21860411763191223,-0.016465127,0.920696426,-0.181569123,0.29140161131035225,0.18556943854021796
1710358943243956200,33.00695629882812,-0.815874279,0.5028403401374817,-2.056257248,0.6031118035316467,0.24481146037578583,-0.759159803,-0.0651021,0.18804992735385895,-0.047221422,0.9210199184464052,-0.188829714,0.2911416083538261,0.17692490302943636
1710358943253976300,33.016976318359376,-0.867393374,0.5006938576698303,-2.105257511,0.6015843152999878,0.2637277841567993,-0.754018605,-0.086386502,0.15302029252052307,-0.067011058,0.9212838616776637,-0.196162568,0.29070765427076667,0.1680640657942416
1710358943263995400,33.026995361328126,-0.958089709,0.538067102,-2.182132959,0.5996155738830566,0.2834932506084442,-0.748393476,-0.147253454,0.12339767813682556,-0.047596514,0.9213698849435366,-0.203917731,0.2902082525376556,0.15897906830328615
1710358943274014500,33.037014404296876,-1.09952414,0.5557295083999634,-2.263581753,0.5971572995185852,0.30447521805763245,-0.742090344,-0.210957289,0.10098138451576233,-0.036367297,0.9212231728512675,-0.212302608,0.2896246248191947,0.14964361047525232
1710358943284033300,33.0470332,-1.262729049,0.5682239532470703,-2.345804453,0.5940255522727966,0.3269851505756378,-0.734992802,-0.249482036,0.095332414,-0.009330869,0.9207969599261255,-0.221506996,0.2888567735706932,0.14010540118903803
1710358943294052400,33.05705224609375,-1.365792751,0.5650814175605774,-2.424492598,0.5900806784629822,0.3508044481277466,-0.72714591,-0.259956717,0.1068219542503357,0.045093298,0.9200955459565578,-0.231424983,0.28787066187027077,0.13037408352027985
1710358943304071400,33.067071533203126,-1.388375044,0.5495283603668213,-2.516752481,0.5851442813873291,0.375344843,-0.718834043,-0.236053705,0.12747806310653687,0.069343746,0.9192067209464763,-0.241688262,0.286652662,0.1203165207988429
1710358943314090500,33.07709057617188,-1.38625598,0.45560479164123535,-2.58933115,0.5788446664810181,0.4002084732055664,-0.71047312,-0.182680726,0.1513051986694336,0.076165318,0.9182358458250666,-0.252038274,0.28502658678851134,0.10990671040054832
1710358943324109300,33.08710938,-1.35513401,0.32230982184410095,-2.586365938,0.5708736777305603,0.42484599351882935,-0.702573299,-0.124309957,0.16626426577568054,0.076550961,0.917277612,-0.262232603,0.28274974816941006,0.099441621
1710358943334128400,33.09712841796875,-1.350300312,0.24119099974632263,-2.593173981,0.5615013837814331,0.44895973801612854,-0.695091009,-0.117928326,0.13313260674476624,0.090232611,0.9163012048188522,-0.272203027,0.2799285841986717,0.08909448
1710358943344147500,33.10714746,-1.452943325,0.19698242843151093,-2.677909613,0.5508547425270081,0.4732924997806549,-0.687425137,-0.167676032,0.067982584,0.12397909164428711,0.9151639023943853,-0.282365899,0.2766892473119179,0.078661632
1710358943354166500,33.11716650390625,-1.606555343,0.156106636,-2.784328461,0.5387591123580933,0.4986700117588043,-0.679019094,-0.211061358,0.00860849,0.16835319995880127,0.9137210334694785,-0.293194424,0.272997233,0.067996695
1710358943364185300,33.127185302734375,-1.824274421,0.057293508,-2.856868744,0.5250250697135925,0.5252802968025208,-0.669648647,-0.202088058,-0.049633265,0.2247633934020996,0.9118929223317297,-0.304883492,0.2687410230144026,0.057233349608275114
1710358943374204400,33.137204345703125,-2.13547492,-0.1123906,-2.864320517,0.5093905329704285,0.5532792210578918,-0.659092963,-0.1489169,-0.085490406,0.2678881883621216,0.909589348,-0.317713301,0.26365087000266724,0.046838592
1710358943384223500,33.147223388671875,-2.423526049,-0.275887161,-2.837445259,0.49187254905700684,0.5825429558753967,-0.647074282,-0.113698691,-0.087303638,0.3101602792739868,0.9067279626586567,-0.331794747,0.2576336698549475,0.037169418
1710358943394242300,33.15724219,-2.603490591,-0.355745256,-2.816671133,0.47288960218429565,0.6123772263526917,-0.633537352,-0.131992996,-0.075801849,0.3320237398147583,0.9033149337256526,-0.346773672,0.2509568788517054,0.028121256
1710358943404261400,33.167261474609376,-2.655682802,-0.376033366,-2.835960388,0.45284709334373474,0.6420026421546936,-0.618677795,-0.167507708,-0.054859638,0.3223826289176941,0.8994257971389401,-0.362128903,0.2439749424002635,0.019291977
1710358943414280400,33.177280517578126,-2.695753098,-0.396051019,-2.899452209,0.43162742257118225,0.671059787,-0.602807224,-0.163652539,-0.036004186,0.31128811836242676,0.8951516142553376,-0.377569068,0.23672345260360808,0.010356614
1710358943424299500,33.187299560546876,-2.734402418,-0.401650727,-3.016148806,0.4089607298374176,0.6996930241584778,-0.585816503,-0.10566175,-0.03379941,0.30935782194137573,0.8904534427456408,-0.393162638,0.22916125446967947,0.001075718
1710358943434318300,33.19731836,-2.657998085,-0.573229432,-3.0257411,0.38449329137802124,0.7274439930915833,-0.568322361,0.000531733,-0.061550379,0.29473233222961426,0.8854883537682636,-0.408643617,0.22101856987836274,-0.008473685
1710358943444337400,33.20733740234375,-3.417061329,-0.541800976,-2.901637077,0.35926851630210876,0.754958451,-0.548601806,0.10478177666664124,-0.013182878,0.19410967826843262,0.8797788684845883,-0.424948664,0.2124093189428419,-0.017034935
1710358943454356500,33.21735645,-3.534851551,-0.111217111,-3.082417488,0.33448079228401184,0.7847257256507874,-0.521850884,0.082816571,0.3127932548522949,0.16168248653411865,0.8719331397301748,-0.44396355,0.20486804414380022,-0.025657163
1710358943464375600,33.22737548828125,-2.474057674,-0.023585897,-3.124851227,0.30931904911994934,0.8100723028182983,-0.498100996,0.033988416,0.35446327924728394,0.13134083151817322,0.8647216007366256,-0.460118662,0.19809168881138947,-0.036152916
1710358943474394400,33.237394287109375,-2.396312475,-0.222074747,-2.982218266,0.28361842036247253,0.8307127356529236,-0.479037672,0.12234163284301758,-0.003487885,0.080951154,0.8586816541444457,-0.47332192,0.19091235416428454,-0.046741381
1710358948233443600,37.99644360351562,-1.724817276,0.058628816,-1.4278754,0.6101647019386292,0.2577129602432251,-0.749188304,-0.039196014,0.3302234709262848,0.030651927,0.917361239,-0.19856594,0.29321907758038873,0.18177607814488211
1710358948243462700,38.00646264648437,-1.572812557,-0.001699773,-1.435548544,0.6065177321434021,0.27877482771873474,-0.744594395,-0.038524568,0.35368674993515015,0.082317293,0.9169358036322265,-0.208248492,0.2904055002143619,0.17755548477749272
1710358948253481700,38.01648168945312,-1.580677867,-0.058736056,-1.43348968,0.6020892858505249,0.2991078197956085,-0.740285814,-0.028084099,0.32650259137153625,0.047353745,0.9165821969256227,-0.217479614,0.28733204684768376,0.1732630960635687
1710358948263500500,38.02650048828125,-1.581820369,-0.054059543,-1.429360867,0.5971969962120056,0.3194029927253723,-0.735756457,-0.061079383,0.30373549461364746,-0.044486403,0.9161358341638619,-0.226739746,0.28409656049463533,0.16903728662446788
1710358948273519600,38.03651953,-1.603050113,-0.003057932,-1.459435225,0.5921844840049744,0.33969569206237793,-0.730701327,-0.171072364,0.27653056383132935,-0.062709868,0.9155423523438497,-0.23606094,0.2809351457440625,0.1647210893098684
1710358948283538700,38.04653857421875,-1.571272492,0.16313610970973969,-1.555802703,0.5874471664428711,0.3601844310760498,-0.724688292,-0.312193811,0.22875910997390747,-0.023938417,0.9147416323707362,-0.245524117,0.2781614079743648,0.1599751542362059
1710358948293557800,38.05655786132812,-1.520709872,0.3523024618625641,-1.722102284,0.5832640528678894,0.38090890645980835,-0.717433989,-0.414837539,0.17437371611595154,-0.033649325,0.9137337895157693,-0.25505799,0.2760949837521053,0.1542970639726015
1710358948303576600,38.06657666015625,-1.556953907,0.42097899317741394,-1.897112131,0.5789748430252075,0.4024205505847931,-0.70911628,-0.432688832,0.10890153050422668,-0.002446771,0.9125614958104153,-0.26487262,0.27437993338191247,0.14761387359381864
1710358948313595600,38.0765957,-1.643937588,0.38231927156448364,-2.04230547,0.5736618041992188,0.4250912666320801,-0.700149715,-0.38344574,0.05037263,0.03399682,0.9112660026963083,-0.275167193,0.27241176481250384,0.14024679824890546
1710358948323614700,38.08661474609375,-1.803104639,0.30406761169433594,-2.173313618,0.5668244361877441,0.4491254985332489,-0.690649211,-0.3404603,-0.003339916,0.10620713233947754,0.9098201855377019,-0.286113939,0.2698410731771638,0.13248349225852735
1710358948333633500,38.09663354492187,-1.946374893,0.22188825905323029,-2.325089693,0.5582266449928284,0.47469964623451233,-0.68047291,-0.334471703,-0.025831759,0.18285328149795532,0.9081643496609223,-0.297859984,0.2665389055551464,0.12439460830241549
1710358948343652600,38.10665258789062,-2.066552162,0.13796165585517883,-2.485188007,0.5476900339126587,0.5015730857849121,-0.669671714,-0.324759066,-0.026643217,0.2611176371574402,0.9063210518124438,-0.310257871,0.2624961034547678,0.11583676121542213
1710358948353671400,38.11667138671875,-2.204903364,-0.069885217,-2.579848289,0.5348642468452454,0.5295849442481995,-0.658376932,-0.243055105,0.009233475,0.27385544776916504,0.9042858402877181,-0.323294131,0.2574731897979703,0.10703181719107956
1710358948363690500,38.12669043,-2.290385008,-0.402642936,-2.553498268,0.5192949771881104,0.5579029321670532,-0.647361696,-0.129585505,0.072376668,0.26068878173828125,0.902192545,-0.336634365,0.250990952,0.098639161
1710358948373709600,38.13670947265625,-2.392556667,-0.628761768,-2.464265347,0.5015191435813904,0.5857886672019958,-0.636655569,-0.093239665,0.10621273517608643,0.23467803001403809,0.9000142710069492,-0.350052146,0.24317837445750418,0.091116567
1710358948383729400,38.14672949,-2.498800755,-0.624979854,-2.408699036,0.48285263776779175,0.613274872,-0.625097871,-0.175983101,0.12288546562194824,0.1913515329360962,0.897470952,-0.363711962,0.23487162784511267,0.084231082
1710358948393748500,38.15674853515625,-2.576479197,-0.477158815,-2.400987864,0.4643140137195587,0.6404064297676086,-0.611794233,-0.294773579,0.12019848823547363,0.15949326753616333,0.8943745728011144,-0.377655536,0.22689020783276342,0.077404314
1710358948403767600,38.16676758,-2.69435215,-0.362735569,-2.406282187,0.4460422694683075,0.667320967,-0.596430361,-0.331250399,0.10039454698562622,0.12775671482086182,0.8906511017679088,-0.391968777,0.2194203609130288,0.070398862
1710358948413786600,38.17678662109375,-2.800178528,-0.321540922,-2.379532576,0.42770951986312866,0.6940134763717651,-0.579145849,-0.255376756,0.091661632,0.1256546974182129,0.8863160168542963,-0.406690093,0.2122033409890276,0.063378842
1710358948423805400,38.186805419921875,-2.859306812,-0.345000982,-2.322597027,0.40915989875793457,0.7200645804405212,-0.560441971,-0.122142106,0.07391125,0.1263752579689026,0.8814856832740142,-0.421602723,0.20501261709989216,0.056603685
1710358948433824500,38.196824462890625,-2.843540907,-0.403082252,-2.267533064,0.39025330543518066,0.7450169324874878,-0.540973544,-0.017053783,0.051827729,0.12436282634735107,0.8763383260800928,-0.436392989,0.19767241205891242,0.050181252078821036
1710358948443843600,38.206843505859375,-2.817265034,-0.416573018,-2.212578535,0.3710460364818573,0.7686242461204529,-0.521096706,0.01495555,0.039740741,0.12702327966690063,0.8709814053268786,-0.450858738,0.1902052758297648,0.044044311906700696
1710358948453862700,38.216862548828125,-2.776966333,-0.349573582,-2.173422337,0.35193687677383423,0.7908896803855896,-0.500633538,-0.014137805,0.029087185859680176,0.1120685338973999,0.8653734503618571,-0.465000841,0.18291377687567922,0.038020817
1710358948463881500,38.226881591796875,-2.723963261,-0.181730255,-2.218107462,0.33300983905792236,0.811913252,-0.479480207,-0.05742088,-0.007103682,0.092258006,0.8594976850803708,-0.47880899,0.17607340140797642,0.031683283
1710358948473900500,38.236900634765625,-2.706223965,0.078859203,-2.33481741,0.3140239417552948,0.8319908976554871,-0.457362145,-0.055189133,-0.06923449,0.084345847,0.853279524,-0.492383689,0.16993302481625028,0.024394806442826645
1710358948483919600,38.246919677734375,-2.784072161,0.23099839687347412,-2.433037043,0.2946277856826782,0.8515103459358215,-0.433733433,0.042484611,-0.112969637,0.065615207,0.8465266843128149,-0.506070928,0.16439436000241728,0.016103839843371694
1710358948493938400,38.25693848,-2.94407177,0.19309735298156738,-2.438741922,0.27447813749313354,0.8705450296401978,-0.408427745,0.19698792695999146,-0.107040942,0.042247415,0.8391407846019885,-0.520138594,0.15887722340094482,0.007533987
1710358948503957500,38.26695751953125,-3.003454447,0.10646765679121017,-2.351219654,0.2539033889770508,0.8887322545051575,-0.381691128,0.28932473063468933,-0.055388689,0.032554835081100464,0.8311710333582981,-0.534524246,0.15309559894617333,-0.000555509
1710358948513976600,38.27697656,-2.894748449,0.12854339182376862,-2.214641094,0.23375816643238068,0.9052112102508545,-0.354894072,0.25856664776802063,-0.001402617,0.019887477159500122,0.8230319391469446,-0.548475067,0.14740442445743115,-0.0080942
1710358948523995600,38.28699560546875,-2.732281923,0.28654077649116516,-2.099767447,0.21475641429424286,0.9197081923484802,-0.328658849,0.13883550465106964,0.052688777446746826,0.002456546,0.8149177310625264,-0.561595905,0.14241001663270658,-0.015445701
1710358948534014500,38.297014404296874,-2.499149561,0.5307884812355042,-2.095663786,0.19665084779262543,0.9323036670684814,-0.30354324,0.015064850449562073,0.1050804853439331,-0.006545842,0.8069892361359867,-0.57365844,0.13836318162479608,-0.023240612
1710358948544033500,38.307033447265624,-2.23537755,0.7923012971878052,-2.185257673,0.17848138511180878,0.9432442784309387,-0.280062199,-0.032149613,0.099709332,-0.029767454,0.7993734835226135,-0.584555326,0.13514425585966586,-0.032144159
1710358948554052600,38.317052490234374,-2.127311707,1.0093729496002197,-2.274017811,0.15971118211746216,0.9528651833534241,-0.257953942,0.037432328,0.041077077,-0.05630073,0.7919532272265994,-0.594515536,0.1325681112414022,-0.042273326
1710358948564071700,38.32707177734375,-2.240965843,1.050680399,-2.289844275,0.14033980667591095,0.9616763591766357,-0.235549212,0.20618726313114166,-0.025671661,-0.03555356,0.7841966406493635,-0.604349494,0.13033450529291277,-0.05301234
1710358948574090500,38.337090576171875,-2.372435093,0.8638842105865479,-2.243080139,0.12054571509361267,0.9698327779769897,-0.211880282,0.39199697971343994,-0.071685135,-0.022113189,0.7758393377732076,-0.614580051,0.1278718758360505,-0.063352484
1710358984211185700,73.97418555,-0.741633058,1.1747608184814453,-2.628605366,0.7203563451766968,0.39905887842178345,-0.567308426,-0.03027755,0.010242938995361328,0.2692432999610901,0.8761810672848582,-0.281154344,0.3705374686015226,0.12633722303183367
1710358984221204700,73.98420483398438,-0.668900251,1.0902619361877441,-2.714601755,0.7157313227653503,0.42229777574539185,-0.55623138,-0.063708007,0.020329207181930542,0.26941198110580444,0.8746648407609556,-0.289941907,0.3712384802543166,0.11435533401903761
1710358984231223600,73.99422363,-0.500628412,1.0217211246490479,-2.847023249,0.709483266,0.4453587532043457,-0.546158612,-0.12551409,0.014968454837799072,0.32309043407440186,0.8733461705916976,-0.298234206,0.3714526163277309,0.10171505382920323
1710358984241242600,74.00424267578126,-0.360882789,0.9606988430023193,-2.962795019,0.701548696,0.46826398372650146,-0.537176311,-0.187449574,0.037030876,0.40912461280822754,0.8722326069882135,-0.306008241,0.37117489325383995,0.088309766
1710358984251260700,74.01426074,-0.177622139,0.9414392709732056,-3.061010122,0.6921628713607788,0.49069684743881226,-0.52927047,-0.231606781,0.067591786,0.4154552221298218,0.871280948,-0.31314901,0.37054344977215486,0.07419466
1710358984261279500,74.02427954101563,-0.126838595,0.91017139,-3.178264618,0.6813595294952393,0.5129229426383972,-0.522167981,-0.26313132,0.049439788,0.39490973949432373,0.8703784936364697,-0.319867879,0.36959513402404676,0.059374832
1710358984271298600,74.03429858398438,-0.238402143,0.8523483872413635,-3.254296303,0.6690476536750793,0.5356218218803406,-0.515251935,-0.28905803,0.022987247,0.4039238691329956,0.8692924953309759,-0.326814705,0.3681931127082567,0.044234028
1710358984281317600,74.04431762695313,-0.383629382,0.7610563039779663,-3.300164938,0.6552109122276306,0.5589526891708374,-0.508203506,-0.319532752,-0.008247674,0.44204139709472656,0.8678990703471541,-0.334340075,0.36621708240666767,0.029209737663511443
1710358984291336400,74.05433642578124,-0.568774462,0.7167415022850037,-3.373168945,0.6398587226867676,0.582963228,-0.50073421,-0.36103487,-0.049821079,0.46319764852523804,0.8661187385932175,-0.34255831,0.363712383,0.014337014644630908
1710358984301355500,74.06435547,-0.89528358,0.6707005500793457,-3.457623005,0.6229373812675476,0.6081745028495789,-0.492009014,-0.396680057,-0.070119023,0.44897931814193726,0.8637154929546516,-0.351912367,0.36076747653628227,-0.000374425
1710358984311373800,74.07437377929688,-1.367178679,0.5643183588981628,-3.491110563,0.6043059229850769,0.6350416541099548,-0.481182456,-0.408428848,-0.068574369,0.4757961332798004,0.8604542429824078,-0.363001193,0.35726588080371013,-0.01448476
1710358984321392600,74.08439258,-1.829328775,0.43840599060058594,-3.492415667,0.5839653611183167,0.663474441,-0.467746019,-0.393596709,-0.06293422,0.5224183201789856,0.8562201073171923,-0.376071445,0.35312499149819815,-0.027574613
1710358984331411700,74.09441162109376,-2.148345947,0.3157479166984558,-3.493019342,0.5619676113128662,0.6927484273910522,-0.451987058,-0.374040246,-0.0507195,0.5696781277656555,0.8511260558548283,-0.390699762,0.3483678510220424,-0.039726569
1710358984341430800,74.10443066,-2.283895254,0.18406018614768982,-3.477159977,0.5383609533309937,0.7218683362007141,-0.434826106,-0.354477286,-0.010610342,0.589245081,0.8454547562288929,-0.406149119,0.34297206988620277,-0.051180435
1710358984351449900,74.11444995117188,-2.242333889,0.10766223818063736,-3.439553976,0.5134629607200623,0.7497944831848145,-0.417329818,-0.327168345,0.06165272,0.5413685441017151,0.8395211279953445,-0.421587648,0.33704442633411125,-0.062203992
1710358984361468700,74.12446875,-2.089238882,0.06204842,-3.414773226,0.4876112639904022,0.7758854627609253,-0.400296301,-0.294435024,0.13942831754684448,0.5144625902175903,0.8335489677986955,-0.436401576,0.33076503432156107,-0.073105191
1710358984371486700,74.13448681640625,-1.867613554,0.00275202,-3.394673347,0.4608791768550873,0.7998366355895996,-0.384515107,-0.250704587,0.18202072381973267,0.4898619055747986,0.8277586173208424,-0.450201054,0.3241318422496469,-0.084103179
1710358984381505800,74.14450586,-1.735267758,-0.082810551,-3.36396718,0.433260977,0.8217496871948242,-0.370151967,-0.195391685,0.16135889291763306,0.43787050247192383,0.8222108160221746,-0.463047167,0.3170352263776526,-0.095107601
1710358984391524600,74.15452465820313,-1.770821333,-0.164500296,-3.330763817,0.40489619970321655,0.842143178,-0.356165588,-0.129642904,0.10735023021697998,0.36377981305122375,0.8166291128678573,-0.475509043,0.3095292376408197,-0.105828666
1710358984401543700,74.16454370117188,-2.064414263,-0.222677842,-3.274470568,0.37599071860313416,0.8617185354232788,-0.340693772,-0.062224239,0.041037261,0.3223222494125366,0.8105001705157435,-0.488433444,0.3018043723954981,-0.115915769
1710358984411562800,74.17456274414063,-2.410836935,-0.274408162,-3.20463562,0.3468877077102661,0.8809123635292053,-0.32196635,0.00067699,-0.003409922,0.3011076748371124,0.803334544,-0.502501439,0.2941243352742547,-0.125047184
1710358984421581800,74.18458178710938,-2.598572016,-0.348143101,-3.128303528,0.3176625967025757,0.8992933630943298,-0.300603002,0.046564728021621704,-0.010392487,0.28336066007614136,0.7953205338467029,-0.517363335,0.2864152310326795,-0.133292441
1710358984431599600,74.19459961,-2.633592367,-0.404777318,-3.022768974,0.2885645627975464,0.9162725806236267,-0.277804285,0.070352674,0.043245971,0.2574338912963867,0.7868200579006775,-0.532413311,0.2786286435539032,-0.14077093
1710358984441618700,74.20461865234375,-2.458102465,-0.419941872,-2.910917521,0.2599915862083435,0.9312442541122437,-0.255320728,0.079470664,0.16862457990646362,0.20319679379463196,0.7783466201240001,-0.546801185,0.2708285552799462,-0.14777345
1710358989360875000,79.123875,-0.411174953,0.5262248516082764,-0.415274799,0.5434852242469788,0.00655169,-0.839393139,-0.048917353,0.010690763592720032,-0.059227407,0.855367904,-0.131173815,0.25119086671703283,0.43363848145252765
1710358989370893000,79.13389306640624,-0.328835607,0.5247457027435303,-0.494354963,0.547843874,0.012133118696510792,-0.836492598,-0.038825929,-0.01567312,-0.051324785,0.855441884,-0.134466753,0.25233389842271875,0.4318164700347385
1710358989380911900,79.14391186523437,-0.257315397,0.5384746789932251,-0.603660703,0.552196741,0.017595943063497543,-0.833528221,-0.053539455,-0.038469955,-0.049131691,0.855751244,-0.137557641,0.25360165549340474,0.42948122830962915
1710358989390931000,79.15393090820312,-0.204646304,0.5847743153572083,-0.754865646,0.5567299127578735,0.023266326636075974,-0.830367684,-0.087400079,-0.055874325,-0.045929253,0.8563329951924806,-0.140601804,0.2550436838374954,0.4264712592375388
1710358989400950000,79.16394995117187,-0.185216412,0.6359190940856934,-0.888202667,0.5615844130516052,0.029522756,-0.826892614,-0.113342166,-0.067120403,-0.066845179,0.8571660359660435,-0.143802944,0.2566601017989514,0.4227444002910553
1710358989410969000,79.17396899414062,-0.108356789,0.6843202114105225,-0.98434329,0.5667407512664795,0.036083717,-0.823105693,-0.124556243,-0.076443195,-0.121550679,0.8581771138014603,-0.147061396,0.2584958524568005,0.4184317237656424
1710358989420988000,79.18398779296875,-0.005383266,0.7520747184753418,-1.102699399,0.572222888,0.042463406920433044,-0.818998098,-0.143954396,-0.083875746,-0.145448923,0.8593751236958346,-0.150137649,0.2606906909551492,0.4134894750433311
1710358989431007000,79.19400708007812,0.10171256214380264,0.8413771390914917,-1.258193731,0.5781935453414917,0.048900247,-0.814432979,-0.17743665,-0.063228212,-0.145115972,0.8607905685498094,-0.153132426,0.2633134716643785,0.407745277
1710358989441025000,79.20402490234375,0.21234798431396484,0.9324420094490051,-1.399838924,0.58471787,0.055362877,-0.809345424,-0.204301,-0.035160203,-0.187663853,0.862431866,-0.156011727,0.26643505309414317,0.401103554
1710358989451043800,79.21404395,0.29493528604507446,0.9923000335693359,-1.510524988,0.5916622281074524,0.06188916,-0.803806961,-0.214281797,-0.011260465,-0.193019211,0.8642347393847298,-0.158789626,0.2699673501813004,0.39370291048764655
1710358989461063000,79.22406298828125,0.4110182225704193,1.0586410760879517,-1.611522436,0.5988608598709106,0.068375394,-0.797928929,-0.2107535,0.019667856,-0.169386744,0.8661693508022071,-0.161389582,0.2738411086794649,0.3856360765676059
1710358989471082000,79.23408203,0.46632620692253113,1.135583519935608,-1.738679409,0.6064043045043945,0.074957475,-0.791615546,-0.207112253,0.048318326473236084,-0.155009151,0.8682081056794135,-0.163878603,0.2780935466506842,0.3768587804605923
1710358989481101000,79.24410107421875,0.48599791526794434,1.180480957,-1.857164502,0.6141535043716431,0.082196131,-0.784894466,-0.199694276,0.087557927,-0.119951665,0.870327768,-0.166493097,0.2825470248956354,0.3673919451007264
1710358989491119900,79.25411987304688,0.5132566690444946,1.1950154304504395,-1.949392915,0.6218161582946777,0.090098426,-0.7779634,-0.187367857,0.12338731437921524,-0.096197367,0.8725054598620624,-0.169200387,0.2870357877267963,0.3573737295118395
1710358989501139000,79.26413891601563,0.5678099393844604,1.204690695,-2.049488306,0.6292329430580139,0.098430604,-0.770958722,-0.188910067,0.1444740742444992,-0.092597127,0.8747529773921398,-0.171847787,0.29152869637405276,0.34682370139098007
1710358989511157000,79.27415698242187,0.6387086510658264,1.203778862953186,-2.166563034,0.6363165378570557,0.10717670619487762,-0.763946593,-0.20383662,0.16549788415431976,-0.071044803,0.877107115,-0.174370824,0.296009299,0.33564329822191125
1710358989521175800,79.28417578,0.685969889,1.2180160284042358,-2.260629654,0.6430315375328064,0.11628192663192749,-0.756960332,-0.226313949,0.1755729615688324,-0.05009222,0.8795510340999622,-0.176733107,0.30047502196777914,0.32383665278855445
1710358989531195000,79.29419482421875,0.5975779294967651,1.2891850471496582,-2.34809041,0.6496738791465759,0.12632247805595398,-0.749644279,-0.247940421,0.1789601445198059,-0.035374641,0.881896281,-0.179366566,0.30496802259120936,0.3115784670299944
1710358989541214000,79.30421387,0.5783382058143616,1.3495204448699951,-2.442276955,0.6563799977302551,0.137681246,-0.74176091,-0.257255793,0.18467597663402557,0.009293318,0.8840496339913978,-0.182518868,0.30952608560025785,0.2988928012275418
1710358989551233000,79.31423291015625,0.5489957928657532,1.3982841968536377,-2.513539076,0.6629618406295776,0.14980089664459229,-0.733512998,-0.245893359,0.13645398616790771,0.050483882427215576,0.8860657906337963,-0.18584473,0.3141738867398442,0.2857341428413498
1710358989561251800,79.32425195,0.3616461157798767,1.4273221492767334,-2.591037273,0.669304371,0.16351450979709625,-0.724772155,-0.214165151,0.092695862,0.10363268852233887,0.887814981,-0.189851741,0.31870084833966156,0.27234306995907553
1710358989571271000,79.33427099609375,0.2744976282119751,1.4142966270446777,-2.644797802,0.675075352,0.17891718447208405,-0.715724826,-0.181270361,0.097175375,0.15963351726531982,0.889314781,-0.194570138,0.3229242197063068,0.25880843043170176
1710358989581289000,79.34428906,0.22475992143154144,1.3880512714385986,-2.682739258,0.6800665259361267,0.1952258199453354,-0.70667994,-0.164945006,0.069910929,0.19073450565338135,0.8906429389569351,-0.199563027,0.3268556844429549,0.24514333031571267
1710358989591307800,79.35430786132812,0.16450031101703644,1.3529365062713623,-2.736465216,0.6841803789138794,0.2123648226261139,-0.697709441,-0.172843039,0.047812834,0.21217477321624756,0.8918154413776677,-0.204788341,0.3304648648988363,0.23134379276536457
1710358989601326800,79.36432690429687,0.11535034328699112,1.341095209121704,-2.810891628,0.6873572468757629,0.23047347366809845,-0.68878299,-0.205255747,0.04342182,0.22868478298187256,0.8928408519533746,-0.210299773,0.3337401805396311,0.2173172272647647
1710358989611346000,79.37434594726562,0.051900796592235565,1.3749024868011475,-2.878108025,0.6898075938224792,0.24950683116912842,-0.679640949,-0.243304849,0.015904590487480164,0.2330772876739502,0.8936520294657989,-0.216117097,0.3368574169682213,0.20299409276503838
1710358989621364700,79.38436474609375,-0.091095775,1.4103246927261353,-2.94688797,0.6916583776473999,0.2697586715221405,-0.669954419,-0.263038993,-0.030470341,0.24337977170944214,0.894127768,-0.222485429,0.339886771,0.18844824566998228
1710358989631383800,79.39438379,-0.300843149,1.3789784908294678,-3.03039813,0.69257468,0.29177340865135193,-0.659703434,-0.259453893,-0.071772158,0.28157544136047363,0.894227022,-0.229732486,0.3425949174542141,0.173809603
1710358989641403000,79.40440283203125,-0.533479273,1.309400200843811,-3.107193232,0.692047119,0.31579577922821045,-0.649110079,-0.2547912,-0.101730168,0.3188183307647705,0.8939842600666581,-0.238004726,0.3446718898549356,0.1592081958939465
1710358989651421000,79.4144209,-0.752126157,1.2698233127593994,-3.17476368,0.6899905204772949,0.3417043387889862,-0.638084054,-0.282306194,-0.114317834,0.3506695628166199,0.893367416,-0.247304681,0.34611902262180994,0.14469524066585346
1710358989661440000,79.42443994140625,-0.956812203,1.2485116720199585,-3.224378109,0.686570406,0.3691805303096771,-0.626360059,-0.33673209,-0.112481862,0.41093647480010986,0.8923057964904973,-0.257545657,0.34711699857592565,0.1302708325751591
1710358989671459000,79.43445898,-1.142292857,1.2006850242614746,-3.270865679,0.6817125678062439,0.39799436926841736,-0.613896251,-0.381358504,-0.099364549,0.486317515,0.8907840205885809,-0.268663017,0.3476665871050728,0.11598336070190579
1710358989681478100,79.44447802734375,-1.200392723,1.089243769645691,-3.350586414,0.6750380396842957,0.4276706874370575,-0.601183414,-0.392185807,-0.061673313,0.605471134,0.8889576729524715,-0.280319356,0.34760517984098316,0.10171512019404857
1710358989691497000,79.45449707,-1.061351418,0.8523571491241455,-3.413256884,0.665848434,0.45724770426750183,-0.589551091,-0.365524888,-0.00406161,0.7267429232597351,0.8872235469224083,-0.291759421,0.3465557573117215,0.087235528
1710358989701516000,79.46451611328125,-0.870392919,0.55023247,-3.394821167,0.6538615226745605,0.48541176319122314,-0.580379665,-0.324927747,0.053299844,0.75974679,0.885946899,-0.302203827,0.34421361172415943,0.072718387
1710358989711535000,79.47453516,-0.764366329,0.28919634222984314,-3.379438877,0.6393415331840515,0.5120559334754944,-0.573621213,-0.293272138,0.10221719741821289,0.7344183921813965,0.8850945723456807,-0.311763947,0.34057690167597315,0.058467267
1710358989721553000,79.48455297851562,-0.655910671,0.10734250396490097,-3.407292843,0.6226106882095337,0.5375745296478271,-0.568656027,-0.281408846,0.12162047624588013,0.7123328447341919,0.8845126407030661,-0.320716768,0.3358760790594888,0.044334141
1710358989731572000,79.49457202148437,-0.586750269,-0.048739776,-3.460544348,0.6038644909858704,0.5621621608734131,-0.565085292,-0.263242543,0.079180062,0.6685246825218201,0.8841022856745469,-0.329173031,0.3303066153890391,0.030097912520214376
1710358989741591000,79.50459106445312,-0.721901655,-0.237156227,-3.470697165,0.5830866098403931,0.5864360928535461,-0.562230229,-0.221834719,0.014012575149536133,0.6302691698074341,0.8836621645285199,-0.337689321,0.32380673876301597,0.016013352560262945
1710358989751610000,79.51461010742187,-0.935792923,-0.395563185,-3.403245687,0.5606509447097778,0.6108185648918152,-0.55908072,-0.175870061,-0.025964379,0.5640093088150024,0.8829118410326762,-0.346870044,0.316450334,0.002674595
1710358989761629000,79.52462891,-1.138632894,-0.463075548,-3.322169065,0.5372300744056702,0.6351011991500854,-0.555004895,-0.154020786,-0.046630681,0.45484626293182373,0.8817066419169186,-0.356725354,0.30861718492858464,-0.009796872
1710358989771648000,79.53464794921875,-1.370433807,-0.458153486,-3.236782312,0.5133962631225586,0.6592844724655151,-0.549334645,-0.164366663,-0.05309844,0.38325804471969604,0.8798888848845559,-0.367285385,0.30072265632925477,-0.021521155
1710358989781667000,79.54466699,-1.700766206,-0.40157795,-3.12807107,0.4896129071712494,0.6836575865745544,-0.541194677,-0.17720443,-0.037646174,0.3311879634857178,0.8772368927411424,-0.378824304,0.29307818152367765,-0.032449178
1710358989791684900,79.55468481445313,-1.979152083,-0.320949137,-3.0105443,0.46627551317214966,0.7082830667495728,-0.530021131,-0.170590669,-0.004166186,0.28971052169799805,0.873614563,-0.391457271,0.2859206751956919,-0.042524988
1710358989801704000,79.56470385742188,-2.018705845,-0.275531173,-2.902202129,0.4434065818786621,0.7323113083839417,-0.516827762,-0.142762631,0.037693023681640625,0.2659580707550049,0.8693161871975211,-0.404498912,0.2792252733441869,-0.051994603
1710358989811723000,79.57472290039063,-1.937047005,-0.314855129,-2.782991886,0.42071959376335144,0.7547386884689331,-0.503353357,-0.103809804,0.098197103,0.21796828508377075,0.8648436047730884,-0.417109302,0.2726594294749907,-0.061010305
1710358989821741800,79.58474194335938,-1.858682394,-0.345387697,-2.633001804,0.3982839584350586,0.7753140926361084,-0.49016127,-0.060347557,0.17956572771072388,0.14218461513519287,0.8603823726444703,-0.429085524,0.26609203915950974,-0.069447512
1710358989831761000,79.59476098632813,-1.717233658,-0.316556036,-2.486569405,0.37655892968177795,0.7939311861991882,-0.477364391,-0.030123383,0.23118484020233154,0.11991211771965027,0.8559773416862868,-0.440280741,0.25975116208323895,-0.077363458
1710358989841780000,79.60478002929688,-1.580479264,-0.277471513,-2.374799728,0.3556254506111145,0.8106032013893127,-0.465245247,-0.011982232,0.20390796661376953,0.1257677674293518,0.8517058999856629,-0.450558037,0.2537219453286885,-0.084969645
1710358989851799000,79.61479907226563,-1.610069036,-0.197478652,-2.299010992,0.33537229895591736,0.8259586691856384,-0.453120083,0.008225143,0.13578760623931885,0.11330687999725342,0.8473642969671707,-0.460324216,0.24807573241039885,-0.09237917
1710358989861816800,79.62481689453125,-1.838460684,-0.089311853,-2.265748978,0.315690279,0.8410862684249878,-0.439219385,0.03021124,0.066323459,0.1164502501487732,0.8424339400358732,-0.470480866,0.2429775025770042,-0.099573353
1710358989871836000,79.63483594,-2.060475349,0.037850887,-2.298201561,0.29619574546813965,0.856506884,-0.422686875,0.055198908,-0.013504446,0.11412370204925537,0.8366302202319156,-0.481457657,0.2384430399434857,-0.106739987
1710358989881855000,79.64485498046875,-2.232397079,0.14241138100624084,-2.388008595,0.276295006,0.8721127510070801,-0.403832465,0.082149237,-0.099239707,0.12261301279067993,0.8299850479255322,-0.493141435,0.23429743439324288,-0.114198213
1710358989891873800,79.65487377929688,-2.351566315,0.19052298367023468,-2.48753047,0.2554629147052765,0.8876708745956421,-0.383117765,0.11029022932052612,-0.122518837,0.15257278084754944,0.8225955952256364,-0.505391257,0.2302624401109781,-0.122046842
1710358989901892900,79.66489282226563,-2.368013859,0.16843408346176147,-2.539885759,0.23357133567333221,0.9026681184768677,-0.36143434,0.1363627314567566,-0.082035124,0.1851038634777069,0.8147278816097124,-0.517860094,0.226061395,-0.13013718
1710358989911912000,79.67491186523438,-2.237288952,0.067798823,-2.556562185,0.21075738966464996,0.9164672493934631,-0.340102017,0.15060125291347504,-0.032342374,0.20828139781951904,0.8068120379149264,-0.530023161,0.2214146206550557,-0.138222799
1710358989921931000,79.68493090820313,-2.020888329,-0.028711151,-2.580186129,0.18707096576690674,0.9286448955535889,-0.320348918,0.13891780376434326,0.003117919,0.21071457862854004,0.799237645,-0.541406509,0.21611232115447415,-0.146266473
1710358989931948800,79.69494873046875,-1.799022794,-0.094067253,-2.623370886,0.1625463217496872,0.9391490817070007,-0.302617967,0.10759525001049042,0.03437686,0.21114155650138855,0.7921249433329912,-0.551828913,0.21018057127141046,-0.154424871
1710358989941968000,79.70496777,-1.624586225,-0.144728035,-2.681629419,0.13710997998714447,0.9481786489486694,-0.286632836,0.079961568,0.067141354,0.19878801703453064,0.7853756463960734,-0.561430998,0.20366348461478226,-0.162793564
1710358989951987000,79.71498706054687,-1.470492005,-0.17608276,-2.7358284,0.11081812530755997,0.9558595418930054,-0.272125095,0.060263410210609436,0.081814528,0.16670221090316772,0.7788983075225943,-0.570323091,0.1966444148869546,-0.171406248
1710358989962005800,79.72500586,-1.542538762,-0.164198458,-2.786275148,0.083836518,0.9625234007835388,-0.25791508,0.037669197,0.0871135,0.13897287845611572,0.7723305824204605,-0.578958772,0.18933886527739216,-0.180175067
1710358989972024800,79.73502490234375,-1.557108402,-0.229956433,-2.657194376,0.056713227182626724,0.9683383107185364,-0.243114725,0.004123546,0.12767016887664795,0.095699638,0.7654293583102292,-0.587622673,0.18205007019206085,-0.188879462
1710358989982044000,79.74504395,-2.709729433,0.073418312,-2.012422562,0.033914473,0.9742081761360168,-0.223087788,-0.053964548,0.29942768812179565,-0.18055287,0.7572236965673934,-0.597723944,0.1765848010667376,-0.195335926
1710358989992063000,79.75506298828125,-2.228923082,0.6117430329322815,-2.302196741,0.013868782669305801,0.980296254,-0.197046295,-0.178816319,0.7192736268043518,-0.080587357,0.7467722088434157,-0.609211612,0.1741782498951837,-0.202125309
1710358990002081000,79.76508105,-1.038398862,0.7650513052940369,-2.736415386,-0.009684329,0.9833556413650513,-0.181433052,-0.215337053,0.5024384260177612,-0.032418832,0.738656187,-0.616554952,0.17071457150795286,-0.212376104
1710358990012100000,79.77510009765625,-0.699274182,0.3937070369720459,-2.774562836,-0.03601484,0.9841264486312866,-0.173776165,0.009357717,-0.026271164,-0.204153404,0.7326581898296262,-0.62114864,0.16518559976100636,-0.223830488
1710358990022119200,79.78511914,-1.613884687,0.074900463,-2.64413476,-0.062353972,0.984673262,-0.162882373,0.2658146321773529,-0.206520736,0.032221436500549316,0.7258966562135566,-0.62717406,0.15878133647810672,-0.233485145
1710358990032138000,79.79513793945313,-2.006439924,-0.089842685,-2.65796423,-0.088420026,0.9856011867523193,-0.144126967,0.33817583322525024,-0.058263421,0.032447993755340576,0.7167505339546497,-0.636105268,0.15266500572973035,-0.241520931
1710358990042157000,79.80515698242188,-1.532789707,-0.204350188,-2.819655657,-0.115615308,0.985211968,-0.126455203,0.20574891567230225,-0.023679137,0.044118866324424744,0.7078168848714378,-0.644667511,0.14552044448740473,-0.24944561
1710358990052176000,79.81517578,-1.39627099,-0.142459393,-2.991140127,-0.144553378,0.9831328988075256,-0.112044536,0.026831806,-0.0350281,-0.021378197,0.6995778139755533,-0.652030117,0.13723869594291593,-0.258095184
1710358990062195000,79.82519482421876,-1.443011642,0.050795447,-3.014546633,-0.174226031,0.9798216819763184,-0.097953297,-0.072905332,0.12840890884399414,0.044700220227241516,0.690967017,-0.65906719,0.12904955747189306,-0.267471979
1710358990072213000,79.83521289,-1.357111335,0.168287456,-2.9980371,-0.203534767,0.9754237532615662,-0.084393963,-0.081301093,0.1870824098587036,0.049024165,0.6821216549876041,-0.66562712,0.12142303705949925,-0.277321432
1710358990082232000,79.84523217773437,-1.267101288,0.093591221,-3.048686266,-0.232866272,0.9698415994644165,-0.071980104,-0.041593641,0.091178536,0.024616889655590057,0.6733961101592807,-0.671639583,0.11362315055802451,-0.287276883
1710358990092251000,79.85525098,-1.368131518,-0.021632839,-3.085856438,-0.262577266,0.963080883,-0.059402298,-0.009883732,0.009392321,0.038055301,0.6644673965361647,-0.677655907,0.10526786192328934,-0.29695852
1710358990102270000,79.86527001953125,-1.47395277,0.000676673,-3.120513439,-0.292401046,0.9552088379859924,-0.045586299,-0.026950181,0.00977236,0.071724713,0.6549074966282225,-0.683988416,0.096781702,-0.306413948
1710358990112289000,79.87528906,-1.429187417,0.10557592660188675,-3.227600813,-0.322557777,0.9460135102272034,-0.03186319,-0.08070159,0.027268528938293457,0.08267504,0.6449235928019377,-0.690121169,0.088324267,-0.316236197
1710358990122308000,79.88530810546875,-1.374006271,0.1537575125694275,-3.399209023,-0.353748322,0.935145915,-0.01909044,-0.130031645,0.081028461,0.015092730522155762,0.6346562500668959,-0.695795514,0.079519703,-0.326736567
1710358990132327000,79.89532690429688,-1.22134769,0.11688977479934692,-3.54057765,-0.38607657,0.9224364757537842,-0.007472642,-0.137116849,0.19888615608215332,-0.050113976,0.6242591343603774,-0.700976765,0.069966089,-0.337693429
1710358990142345000,79.90534497070313,-1.080819607,0.047246195,-3.591693401,-0.418834895,0.9080584049224854,0.002702836,-0.114337713,0.26525092124938965,-0.072984695,0.6140548973938178,-0.705548488,0.059604938846078176,-0.348690641
1710358990152364000,79.91536401367188,-1.075754046,-0.024908692,-3.569943905,-0.451161355,0.8923579454421997,0.012284212745726109,-0.110560507,0.25482839345932007,-0.077576518,0.6039135126180449,-0.709759374,0.048823524094750055,-0.359369478
1710358990162382800,79.92538281,-1.26093483,-0.058994643,-3.508261442,-0.482515007,0.8755916953086853,0.022779252380132675,-0.140684545,0.23198288679122925,-0.05474627,0.5933203333998421,-0.714095411,0.038175524,-0.369569402
1710358990172402200,79.93540209960938,-1.396236539,0.002202665,-3.427617073,-0.512653053,0.8578974604606628,0.034630891,-0.194408834,0.24769353866577148,0.018942836672067642,0.581991252,-0.718696107,0.028130982100746705,-0.379435083
1710358990182421000,79.9454209,-1.311824083,0.10322914272546768,-3.297749996,-0.541303873,0.839572012,0.045926876,-0.243852437,0.2777528762817383,0.058336496353149414,0.5705807089952948,-0.722918655,0.018763149698056345,-0.389197066
1710358992376552700,82.13955273,-0.290907413,1.1027425527572632,-1.86630547,0.5659056305885315,0.027034963,-0.824026644,-0.280825615,0.1145513653755188,-0.013924956,0.8988027794115583,-0.113454843,0.2740705415240645,0.322749195
1710358992386571500,82.14957153320313,-0.251639932,1.1988019943237305,-1.980538607,0.5747120380401611,0.040203969925642014,-0.817367554,-0.317479372,0.091799825,-0.006912231,0.9001211348523019,-0.119144209,0.2777064561497785,0.31379261758893046
1710358992396590600,82.15959057617188,-0.267180264,1.2153620719909668,-2.113474607,0.5836242437362671,0.054195918,-0.810213268,-0.32106626,0.087100491,0.009721994,0.9014397812517819,-0.125051153,0.28152365361557363,0.30415961167694067
1710358992406609400,82.16960938,-0.341526121,1.2163738012313843,-2.190265417,0.5920882225036621,0.069280513,-0.802889705,-0.280183256,0.069269337,0.041689754,0.9027564998137708,-0.131265585,0.28517450094305197,0.2940676818415034
1710358992416628500,82.17962841796874,-0.514484584,1.1805628538131714,-2.26551342,0.5999754071235657,0.085983709,-0.795384407,-0.214462042,0.055160105,0.085118353,0.9039672334867415,-0.138127623,0.2884935813260825,0.28378791485339855
1710358992426647600,82.18964746,-0.670503199,1.1060731410980225,-2.329533577,0.6068507432937622,0.10468178987503052,-0.787892103,-0.154290259,0.075814471,0.1798446774482727,0.9050858461005353,-0.145802578,0.2911967502853111,0.27343353167955425
1710358992436666400,82.19966625976562,-0.638819039,1.054706097,-2.364822626,0.6126287579536438,0.12421642988920212,-0.780548751,-0.114841282,0.10869374126195908,0.2192695140838623,0.9061669251005977,-0.153685045,0.2934391522677389,0.2629372677189688
1710358992446684700,82.20968457,-0.665821135,1.006599784,-2.408886671,0.6174536943435669,0.1439088135957718,-0.773331285,-0.116599143,0.11126396059989929,0.22946226596832275,0.9072180332511492,-0.16144671,0.295413811,0.2522324910047831
1710358992456703500,82.21970336914063,-0.761073887,0.9458398222923279,-2.46626997,0.6211978197097778,0.16459190845489502,-0.766174197,-0.147961676,0.11652079224586487,0.29698169231414795,0.9081918416043727,-0.16954118,0.29693214101180193,0.24140182752760864
1710358992466722600,82.22972266,-0.793759048,1.004670501,-2.552848339,0.6241775751113892,0.1861724853515625,-0.758776784,-0.190202296,0.12612919509410858,0.33752745389938354,0.9090314887359151,-0.17796532,0.2982279983848107,0.23032657687854693
1710358992476741600,82.23974169921875,-0.864663363,1.1126376390457153,-2.740151167,0.6269747018814087,0.20893193781375885,-0.750499964,-0.210089326,0.14688779413700104,0.32030898332595825,0.9096589415220099,-0.186856105,0.29972455010098725,0.2185652115905987
1710358992486760700,82.24976074,-1.013833165,1.1172239780426025,-2.982112408,0.6290045380592346,0.233975351,-0.741356075,-0.174002647,0.20120534300804138,0.33159661293029785,0.9101144490419811,-0.196638835,0.3010898914357869,0.2058394152349152
1710358992496779500,82.25977954101562,-1.137224317,1.0670121908187866,-3.107733965,0.6295188069343567,0.2611917555332184,-0.731768429,-0.107836008,0.2085806131362915,0.34804046154022217,0.9104164033582729,-0.207260215,0.30192545388034825,0.19242239446667422
1710358992506798600,82.26979858398437,-1.627380967,1.0555459260940552,-3.072203636,0.6285483241081238,0.29022321105003357,-0.721593797,-0.068047225,0.14298909902572632,0.33844560384750366,0.9103153044256798,-0.218895331,0.3021389458666147,0.17922934376934369
1710358992516817700,82.27981762695312,-2.126074314,1.171252965927124,-3.229276896,0.6269201040267944,0.3240385949611664,-0.708498597,-0.092847168,0.1183900535106659,0.33345282077789307,0.9091212141116294,-0.233550674,0.302001322,0.16657733209266437
1710358992526835500,82.28983544921876,-2.076557159,1.1789321899414062,-3.284057856,0.6240190863609314,0.3590330481529236,-0.694042861,-0.170298934,0.027639955282211304,0.3018310070037842,0.9074601013828026,-0.248839684,0.301757143,0.15341991421883544
1710358992536854500,82.29985449,-2.816339731,1.2657232284545898,-3.414331198,0.6197921633720398,0.3966721296310425,-0.677132905,-0.209620595,-0.104649365,0.3309568166732788,0.9049035059815618,-0.265916642,0.30120075662405765,0.1404141327100506
1710358992546873600,82.30987353515626,-2.556096792,1.2474945783615112,-3.549270153,0.6136595606803894,0.43646377325057983,-0.657967508,-0.22039479,-0.07737866,0.40929508209228516,0.9015888073325646,-0.284340424,0.300277799,0.1269699277094501
1710358992556892700,82.31989258,-2.521693468,1.1157405376434326,-3.667785168,0.6049275994300842,0.4748525321483612,-0.639200866,-0.179085255,-0.28889361,0.40038561820983887,0.8982704507816771,-0.301821869,0.2988362737908167,0.11274201031709591
1710358992566911500,82.32991137695312,-2.414108276,0.9366587400436401,-3.594954014,0.5933488011360168,0.5123814344406128,-0.620808065,-0.091090441,-0.277319729,0.49969905614852905,0.8948238748234291,-0.318922709,0.2964528391963206,0.098460606
1710358992576930600,82.33993066,-2.450383186,0.7376455068588257,-3.486159563,0.5797277688980103,0.5479632019996643,-0.603035867,-0.047318101,-0.148518562,0.5299920439720154,0.8912441212987846,-0.335343416,0.2933033709117307,0.084865217
