time,seconds_elapsed,rotationRateX,rotationRateY,rotationRateZ,gravityX,gravityY,gravityZ,accelerationX,accelerationY,accelerationZ,quaternionW,quaternionX,quaternionY,quaternionZ
1710359354190368500,0.046368408203125,0.08906733989715576,0.029342513531446457,-0.01400298997759819,-0.5654425621032715,0.7738391757011414,-0.28538981080055237,0.0046975016593933105,0.015040040016174316,-0.011027604341506958,0.801682414173567,-0.4826344869125276,-0.35265996463169935,1.8182475420209815e-17
1710359354200387300,0.05638720703125,-0.018283352255821228,0.002453373745083809,-0.0778978168964386,-0.5659338235855103,0.7734050750732422,-0.2855931222438812,0.01361149549484253,0.014955520629882812,-0.0114346444606781,0.801745886090335,-0.4824268278892725,-0.3527999253505137,-0.00023013439058346385
1710359354210406400,0.066406494140625,-0.23949749767780304,0.15419256687164307,0.050115011632442474,-0.5657745599746704,0.7737522125244141,-0.2849678695201874,0.009103536605834961,-0.012125074863433838,-0.001088857650756836,0.8015504579140031,-0.48305532788829547,-0.3523827588761214,-0.0008999450016103309
1710359354220424400,0.076424560546875,-0.1268572360277176,-0.0035866228863596916,0.02685735933482647,-0.5652058124542236,0.7746122479438782,-0.2837570607662201,0.0031331777572631836,-0.053619325160980225,0.008595108985900879,0.8011722438781352,-0.483954639621038,-0.3520076426832584,-0.0012070437994699844
1710359354230443300,0.086443359375,0.018064536154270172,0.011390462517738342,-0.004222264047712088,-0.5652626752853394,0.77474045753479,-0.28329357504844666,0.010514259338378906,-0.04964292049407959,0.0015703439712524414,0.8010275008831207,-0.4841627981255459,-0.35205056466206236,-0.0012994871830426568
1710359354240899800,0.09689990234375,0.20364078879356384,0.037644702941179276,0.06701942533254623,-0.5650562644004822,0.7744877338409424,-0.28439486026763916,-0.0024334192276000977,0.027163386344909668,-0.031049907207489014,0.8013723344358678,-0.4832258925756723,-0.3525553976066528,1.8486957294968135e-17
1710359354250918000,0.10691796875,0.328337699174881,-0.026193663477897644,0.08290570974349976,-0.5645066499710083,0.7740848064422607,-0.2865748703479767,-0.016426026821136475,0.07164895534515381,-0.0236971378326416,0.8020517612478716,-0.4822399560129655,-0.35235947067546614,0.0007407099704596653
1710359354260936700,0.116936767578125,0.3141947388648987,-0.055988576263189316,0.09600420296192169,-0.5639859437942505,0.7736027240753174,-0.2888924777507782,-0.0007266402244567871,0.04312407970428467,-0.020311355590820312,0.8027722023817482,-0.48105179912123625,-0.3523392146651981,0.001777690282613721
1710359354270954800,0.126954833984375,0.1426064521074295,-0.011266379617154598,0.09862368553876877,-0.5632265210151672,0.7735276222229004,-0.2905699908733368,0.008798420429229736,0.0025344491004943848,-0.007876425981521606,0.8032917900501318,-0.4802834833550503,-0.3521970702698629,0.0027145217631246604
1710359354280973800,0.136973876953125,-0.06860191375017166,0.014996809884905815,0.04859621077775955,-0.5625443458557129,0.7739238142967224,-0.2908363342285156,0.0002732276916503906,-0.027753710746765137,0.007755547761917114,0.8033732806843313,-0.48031780825748605,-0.35196112680415725,0.0030896096256479368
1710359354290992600,0.14699267578125,-0.1762511432170868,0.030707065016031265,0.017517652362585068,-0.5622557997703552,0.7744695544242859,-0.28994035720825195,-0.008865416049957275,-0.05359852313995361,0.017616957426071167,0.8030950624856055,-0.48089357531434995,-0.3518112915123994,0.00293204062256338
1710359354301011000,0.157010986328125,-0.1515207588672638,0.063595712184906,-0.0005670755635946989,-0.5622043609619141,0.7749010920524597,-0.288885235786438,-0.005468428134918213,-0.059279024600982666,0.01579892635345459,0.8027680051996073,-0.48154936561774114,-0.3516640211399938,0.002497024865678956
1710359354311030000,0.167030029296875,-0.03473742678761482,0.06655262410640717,-0.013295654207468033,-0.5621778964996338,0.7750400304794312,-0.2885635495185852,0.0007460117340087891,-0.020660758018493652,0.002888709306716919,0.8026689235660377,-0.4818766865247937,-0.3514442909672626,0.0020844797897750476
1710359354321048800,0.177048828125,0.07195386290550232,0.04752881079912186,-0.011610938236117363,-0.56205815076828,0.7749008536338806,-0.28917044401168823,0.0053563714027404785,0.028688132762908936,-0.010160982608795166,0.8028583901629659,-0.4817383214285486,-0.35120216968299567,0.0019440982525221861
1710359354331067000,0.18706689453125,0.07866662740707397,0.04074227809906006,0.011402502655982971,-0.5618307590484619,0.7747482061386108,-0.290020227432251,0.007433116436004639,0.043962299823760986,-0.014865398406982422,0.8031228059293909,-0.4814519522646159,-0.35098988185909746,0.0020201359227402836
1710359354341086000,0.1970859375,0.06081119924783707,0.031957950443029404,0.04401823505759239,-0.5614125728607178,0.7747558355331421,-0.29080840945243835,0.0052754878997802734,0.02570509910583496,-0.011223822832107544,0.8033675624086388,-0.481229726065829,-0.35073316254419507,0.002205526001834884
1710359354351103700,0.207103759765625,0.0001427927054464817,0.024036377668380737,0.05218401923775673,-0.5609086751937866,0.7749534845352173,-0.2912539839744568,0.0025894641876220703,-0.014455258846282959,-0.0027674436569213867,0.8035056781283619,-0.4811806143037611,-0.35048284291181203,0.0024120320892550523
1710359354361122800,0.217122802734375,-0.07799968123435974,0.028831399977207184,0.030121861025691032,-0.5605875253677368,0.7752440571784973,-0.291098952293396,0.0033974647521972656,-0.03468900918960571,-0.0009236037731170654,0.8034574445584299,-0.48138853516039676,-0.35030787667085656,0.002417393300165341
1710359354371142000,0.227141845703125,-0.10803987085819244,0.02315087616443634,0.0038905232213437557,-0.5605584383010864,0.7755003571510315,-0.29047101736068726,0.004085659980773926,-0.030276358127593994,0.0017596781253814697,0.8032625575512274,-0.48176462303291057,-0.35023898144873555,0.0021890930264476
1710359354381159700,0.23715966796875,-0.08083061873912811,0.0483248308300972,-0.015610739588737488,-0.5607215762138367,0.7755898237228394,-0.2899170219898224,0.0019294023513793945,-0.026886701583862305,0.0031740665435791016,0.8030910997556716,-0.4820867683239126,-0.3501911436374948,0.0018141843456065108
1710359354391178800,0.2471787109375,-0.012423066422343254,0.025799015536904335,0.02945580519735813,-0.5606195330619812,0.7757169008255005,-0.2897745370864868,-0.0033148527145385742,-0.018926620483398438,-0.0026904940605163574,0.8030471823682359,-0.4822651042467544,-0.35004727387586143,0.0016478652630684122
1710359354401197800,0.25719775390625,0.045104943215847015,0.020561590790748596,0.022688180208206177,-0.5602385401725769,0.7758955359458923,-0.29003283381462097,-0.0007508993148803711,0.0003344416618347168,-0.0044158101081848145,0.8031272445055907,-0.4822710861020824,-0.3498545094404964,0.0017799582702325394
1710359354411216000,0.2672158203125,0.06295504420995712,0.022650841623544693,0.013250203803181648,-0.5598268508911133,0.7759758830070496,-0.2906121611595154,0.003292977809906006,0.01047748327255249,0.000939488410949707,0.8033071140951069,-0.48213150282742484,-0.34963285029426666,0.0019686016562495134
1710359354421235000,0.27723486328125,0.048938825726509094,0.016962701454758644,0.02155473828315735,-0.5594716668128967,0.776002824306488,-0.29122403264045715,0.0007252097129821777,0.00019663572311401367,0.006708920001983643,0.8034971451044609,-0.4819564951463233,-0.3494365677743944,0.002148456347142582
1710359354431253000,0.2872529296875,0.021337825804948807,0.01832330971956253,0.0211387537419796,-0.5593148469924927,0.7759484648704529,-0.29166945815086365,0.0018501877784729004,-0.01934128999710083,0.012189745903015137,0.803635436075595,-0.48180583132146965,-0.3493256434495527,0.0022271156232703156
1710359354441271800,0.297271728515625,0.011487061157822609,0.018471594899892807,0.01506621390581131,-0.5592732429504395,0.7758567929267883,-0.29199326038360596,0.0025562644004821777,-0.027718186378479004,0.014924407005310059,0.8037362428719109,-0.4816926431920056,-0.34925000310004606,0.002217748865320434
1710359354451291000,0.307290771484375,0.01607648655772209,0.009538820013403893,0.01127360574901104,-0.5592849254608154,0.7757540345191956,-0.29224368929862976,0.0005842447280883789,-0.025326550006866455,0.011100679636001587,0.8038141799664426,-0.48158990206895086,-0.34921244078344826,0.0021999011971028373
1710359354461309000,0.317308837890625,0.029493490234017372,0.005878305062651634,0.010045887902379036,-0.5593874454498291,0.7755858302116394,-0.29249390959739685,-0.0009154081344604492,-0.020016133785247803,0.004499703645706177,0.8038920472045488,-0.4814429536170205,-0.34923591229153844,0.0021897844377704208
1710359354471327700,0.32732763671875,0.03435056284070015,0.003561887890100479,0.008820833638310432,-0.5594969987869263,0.7753754258155823,-0.2928414046764374,-0.00039374828338623047,-0.0157623291015625,-0.0010731518268585205,0.8039999454289285,-0.4812437043087143,-0.3492617781466241,0.002198352978909867
1710359354481346800,0.337346923828125,0.03636311739683151,0.0032030530273914337,0.008883152157068253,-0.5594260692596436,0.775307297706604,-0.2931574881076813,-0.0016091465950012207,-0.014870166778564453,-0.004190325736999512,0.8040980841047177,-0.48110502746304457,-0.3492265879580828,0.0022851301514256748
1710359354491364900,0.34736474609375,0.020478956401348114,0.003650464117527008,0.003919818438589573,-0.5592714548110962,0.7753571271896362,-0.29332074522972107,-0.001412808895111084,-0.01887202262878418,0.000016510486602783203,0.8041485152185182,-0.48105934243415616,-0.3491726379634765,0.0023925195798491223
1710359354501383700,0.3573837890625,0.00718925055116415,0.0012362562119960785,0.002157071838155389,-0.5592482089996338,0.7753756046295166,-0.2933158874511719,-0.002702474594116211,-0.019592463970184326,0.003353327512741089,0.804146834238367,-0.481057995719247,-0.34917797940086115,0.002424351232387227
1710359354511402000,0.367402099609375,0.012709983624517918,-0.0010631168261170387,-0.0007953084423206747,-0.559360921382904,0.7753015160560608,-0.293296754360199,-0.0022693276405334473,-0.013811588287353516,0.0033647119998931885,0.8041409328101162,-0.4810227614112437,-0.34924021876207767,0.0024071278546016037
1710359354521421000,0.377421142578125,0.022362876683473587,-0.005073624663054943,-0.00022192986216396093,-0.5595554709434509,0.7751588225364685,-0.29330310225486755,-0.0008999109268188477,-0.010250866413116455,0.0005481839179992676,0.8041430419940863,-0.4809422925101212,-0.3493464744275304,0.002384486427054354
1710359354531439900,0.38743994140625,0.015363823622465134,-0.002910338342189789,0.00519467331469059,-0.5597430467605591,0.7750001549720764,-0.29336458444595337,0.0008745789527893066,-0.00824582576751709,-0.0030371546745300293,0.8041622107764763,-0.48083807221754243,-0.34944593320859013,0.00237020424980405
1710359354541458000,0.3974580078125,0.0035561667755246162,-0.006381449289619923,0.01001286506652832,-0.5598726868629456,0.7748854756355286,-0.29341962933540344,0.0017367005348205566,-0.005552530288696289,-0.003073662519454956,0.804179240283277,-0.4807580172023159,-0.3495166838708283,0.0023665095451503187
1710359354551477000,0.40747705078125,-0.005999788176268339,-0.011559166945517063,0.007955837994813919,-0.5599511861801147,0.7748247385025024,-0.29343053698539734,0.0031731724739074707,-0.008589327335357666,-0.0033221542835235596,0.8041826846595603,-0.4807149958292616,-0.34956804443413986,0.002373520044609251
1710359354561495800,0.417495849609375,-0.008455488830804825,-0.006789553910493851,-0.0008802632801234722,-0.5600706934928894,0.7747378349304199,-0.29343217611312866,0.002926468849182129,-0.012362778186798096,-0.0030305981636047363,0.8041832975180299,-0.480671381077872,-0.34962684137046524,0.002348238435747802
1710359354571513900,0.427513916015625,-0.009124740958213806,-0.006828702986240387,-0.00789636094123125,-0.5602601766586304,0.77461838722229,-0.29338571429252625,0.0011323094367980957,-0.008031964302062988,-0.001719057559967041,0.8041690664706208,-0.4806378655071806,-0.34970613948777923,0.002273583032921548
1710359354581533000,0.437532958984375,0.00035185134038329124,-0.007406127639114857,-0.010156054049730301,-0.5605102777481079,0.7744548320770264,-0.2933395206928253,-0.0009673833847045898,-0.0005747675895690918,-0.003321617841720581,0.8041549034704281,-0.4805813487338977,-0.3498168110459195,0.0021885236425520844
1710359354591550700,0.44755078125,-0.0011144853197038174,-0.003899543546140194,-0.0039748563431203365,-0.5606995224952698,0.7743296027183533,-0.2933085560798645,0.0023345947265625,0.0036093592643737793,-0.0029405951499938965,0.8041454399510188,-0.4805348653164112,-0.3499027845491858,0.002128825001367821
1710359354601569800,0.45756982421875,-0.009175874292850494,-0.00648542121052742,-0.005765832494944334,-0.5608258247375488,0.7742483019828796,-0.2932814359664917,0.004551410675048828,-0.00018513202667236328,-0.002632051706314087,0.8041370815919375,-0.4805087270800184,-0.3499580534360195,0.002083905842000594
1710359354611588900,0.4675888671875,-0.018202126026153564,-0.004528796300292015,-0.0020773541182279587,-0.5609117150306702,0.7742024064064026,-0.29323840141296387,0.005552768707275391,-0.005510270595550537,-0.0029954910278320312,0.8041238300453979,-0.48050941910668293,-0.3499878609745963,0.002034732324416825
1710359354621607000,0.47760693359375,-0.02160457894206047,-0.004206712357699871,-0.0034552738070487976,-0.560945987701416,0.7742173671722412,-0.2931334972381592,0.00572437047958374,-0.00666964054107666,-0.009066641330718994,0.8040913616139215,-0.4805568678105196,-0.34999764949392154,0.0019916111023610674
1710359354631626000,0.4876259765625,-0.010708789341151714,-0.004461842589080334,-0.005174610298126936,-0.5609931349754333,0.7742034196853638,-0.2930804491043091,0.003589451313018799,-0.003634333610534668,-0.013590484857559204,0.8040750585027979,-0.4805763246131135,-0.3500088079671817,0.00194927139117851
1710359354641645000,0.49764501953125,-0.013869429007172585,-0.0032779620960354805,-0.0048294649459421635,-0.5610818862915039,0.7741417288780212,-0.2930729389190674,0.0018777847290039062,-0.0014823675155639648,-0.013155490159988403,0.8040727260927796,-0.4805610432223795,-0.35003515961548987,0.0018993784314414578
1710359354651662800,0.507662841796875,-0.020922811701893806,0.0007077250629663467,0.00005237571895122528,-0.5611212253570557,0.7741392850875854,-0.29300451278686523,0.0030766725540161133,0.00027501583099365234,-0.011560708284378052,0.8040516434631194,-0.48059065012398244,-0.35004338460735207,0.0018567588648774423
1710359354661682000,0.517681884765625,-0.02744009904563427,0.002859133295714855,-0.002292537596076727,-0.5611175894737244,0.7741933465003967,-0.29286840558052063,0.004400670528411865,-0.0020832419395446777,-0.011742591857910156,0.8040093849958679,-0.4806718139667417,-0.35002914217728437,0.0018056103861207782
1710359354671700500,0.527700439453125,-0.015840167179703712,-0.00013825390487909317,-0.002953267889097333,-0.5610681176185608,0.774271547794342,-0.29275643825531006,0.006090641021728516,-0.004801273345947266,-0.008985906839370728,0.8039746318898348,-0.4807553977389905,-0.3499943332724186,0.0017732747648455506
1710359354681719600,0.537719482421875,-0.0136864697560668,-0.0017612380906939507,0.0009197673061862588,-0.5610266923904419,0.7743248343467712,-0.2926947772502899,0.006903707981109619,-0.00879126787185669,-0.0074454545974731445,0.8039554553592876,-0.480804806649081,-0.3499705046783731,0.001762375767309624
1710359354691738400,0.54773828125,-0.017311297357082367,0.0018412191420793533,-0.000269866781309247,-0.5609984397888184,0.7743611335754395,-0.2926529049873352,0.006814420223236084,-0.009514212608337402,-0.005885064601898193,0.8039424944057824,-0.4808440616716929,-0.34994646881516067,0.0017419441403100345
1710359354701756400,0.55775634765625,-0.013927219435572624,0.0019383719190955162,-0.005012424197047949,-0.5609817504882812,0.7743491530418396,-0.2927163243293762,0.00408172607421875,-0.0042991042137146,-0.00019118189811706543,0.8039622355175898,-0.4808429780513377,-0.3499026564937119,0.0017004319502428823
1710359354711775500,0.567775390625,-0.008597701787948608,-0.008633045479655266,-0.006806063000112772,-0.5610018372535706,0.7742887139320374,-0.29283779859542847,-0.00012487173080444336,-0.0010647773742675781,-0.00037482380867004395,0.8040001061606079,-0.4807989030148143,-0.3498764262868695,0.001663402061326742
1710359354721794300,0.577794189453125,-0.0027110502123832703,-0.007840914651751518,-0.008112343028187752,-0.5610494017601013,0.7742154598236084,-0.29294052720069885,-0.001633763313293457,-0.0016475915908813477,0.0038172006607055664,0.8040321297120607,-0.4807438024197789,-0.3498787384688814,0.0016413035612875796
1710359354731812400,0.587812255859375,0.015835735946893692,-0.006222512573003769,-0.007074243389070034,-0.5610766410827637,0.7741267085075378,-0.29312312602996826,-0.006153702735900879,0.0018439888954162598,0.0004750192165374756,0.8040889492626874,-0.48065173054686444,-0.3498747730799639,0.0016480170843299218
1710359354741831400,0.59783154296875,0.02153809554874897,-0.00154978409409523,-0.005231335759162903,-0.5610908269882202,0.7739974856376648,-0.2934367060661316,-0.01131218671798706,0.00001990795135498047,-0.005803138017654419,0.8041863229716243,-0.4805020181639397,-0.3498563371234146,0.0016738224532131896
1710359354751849500,0.607849365234375,-0.0005014254711568356,0.0008087111636996269,-0.0031029374804347754,-0.5610744953155518,0.7739240527153015,-0.2936614751815796,-0.012823879718780518,-0.009611189365386963,-0.006249785423278809,0.8042561556978246,-0.48040904317172756,-0.3498233955074318,0.001686822292631872
1710359354761868500,0.61786865234375,-0.01131838746368885,0.004347680602222681,-0.007786372676491737,-0.5610902309417725,0.7738754749298096,-0.2937592566013336,-0.011617898941040039,-0.014323413372039795,-0.00992092490196228,0.8042866199625875,-0.4803799219917456,-0.34979350738095466,0.001642707505293456
1710359354771887600,0.6278876953125,-0.004869808442890644,0.0008450914174318314,-0.005164224188774824,-0.561111569404602,0.7738345265388489,-0.2938265800476074,-0.01042163372039795,-0.013244867324829102,-0.006740838289260864,0.8043077044651511,-0.4803639946076545,-0.3497672587776376,0.0015919244901503016
1710359354781905400,0.637905517578125,0.004538606386631727,-0.006706248968839645,-0.0010589613812044263,-0.5611286163330078,0.773830771446228,-0.2938039004802704,-0.004865705966949463,-0.0068171024322509766,-0.0061379075050354,0.8043006315166624,-0.4803664873054335,-0.349780061994999,0.001590481593277731
1710359354791924500,0.647924560546875,0.028794676065444946,-0.01407708041369915,0.0017839630600064993,-0.5611685514450073,0.7737768292427063,-0.29386964440345764,0.003185093402862549,0.003948509693145752,-0.008620381355285645,0.8043209437679962,-0.480295479839977,-0.3498305732939245,0.001648530504666922
1710359354801943600,0.657943603515625,0.02581992745399475,-0.011048587039113045,0.014792706817388535,-0.5611763000488281,0.7737360596656799,-0.2939625382423401,0.008808016777038574,0.00499647855758667,-0.0019204914569854736,0.8043496661436147,-0.4802046947727306,-0.3498888233568546,0.001759247012281286
1710359354811961300,0.66796142578125,0.010541371069848537,-0.004331560805439949,0.017003662884235382,-0.5611171126365662,0.7737557291984558,-0.2940235733985901,0.009481251239776611,-0.00430065393447876,0.0065482258796691895,0.8043683781325237,-0.48016302339507083,-0.3499023892911882,0.001857435189574343
1710359354821980400,0.67798046875,0.0167984701693058,-0.010152113623917103,0.009752141311764717,-0.5611469745635986,0.7736974358558655,-0.29411953687667847,0.005238771438598633,-0.008469164371490479,0.007834404706954956,0.8043979794105518,-0.48008708166732733,-0.34993803664554174,0.0019078841798227482
1710359354831999500,0.68799951171875,0.058341916650533676,-0.00899097602814436,0.011831270530819893,-0.5612642765045166,0.7734909653663635,-0.29443883895874023,0.0012056231498718262,-0.008048951625823975,0.008397817611694336,0.8044971180312404,-0.47987075518411093,-0.3500066165173243,0.0019737880038614925
1710359354842017500,0.698017578125,0.0840265080332756,-0.01122462097555399,0.014315200969576836,-0.5613738894462585,0.7731480002403259,-0.2951298654079437,-0.0004242062568664551,-0.0011752843856811523,0.013285011053085327,0.8047114847146597,-0.4794733911027742,-0.35005762078421804,0.0021032552258195432
1710359354852036400,0.708036376953125,0.08983112871646881,-0.023762520402669907,0.009559061378240585,-0.5614993572235107,0.7728002071380615,-0.2958013713359833,-0.0012753009796142578,0.010403037071228027,0.009195834398269653,0.8049196136504853,-0.47905872112056813,-0.3501457559752811,0.0022742819791287867
1710359354862054700,0.7180546875,0.09030597656965256,-0.02374856173992157,0.01120968908071518,-0.5615683197975159,0.7725064754486084,-0.2964373826980591,0.0015096068382263184,0.017319202423095703,0.0051625072956085205,0.8051165572418838,-0.47865881991516346,-0.3502385609755425,0.0025043245996752843
1710359354872073500,0.728073486328125,0.10689613968133926,-0.022046003490686417,0.016131211072206497,-0.5614420175552368,0.7723326683044434,-0.29712846875190735,-0.0002799034118652344,0.006521821022033691,0.0016880035400390625,0.8053300726110282,-0.47829429997039724,-0.35024325205051277,0.002802509933234973
1710359354882092500,0.738092529296875,0.1259462535381317,-0.029867496341466904,0.0045579117722809315,-0.5613102912902832,0.7721459269523621,-0.2978616952896118,-0.006255686283111572,-0.0020805001258850098,-0.007695317268371582,0.8055563059948121,-0.47788644424359666,-0.35027660507854763,0.0031647188274641393
1710359354892110600,0.748110595703125,0.12537288665771484,-0.03200201690196991,0.009605133906006813,-0.561299741268158,0.7718878388404846,-0.2985495626926422,-0.010111391544342041,0.0027551651000976562,-0.012302249670028687,0.8057682652504018,-0.4774498676143371,-0.35038099397875405,0.0035103379987549864
1710359354902129400,0.75812939453125,0.12868079543113708,-0.03033466637134552,0.022334778681397438,-0.5612856149673462,0.7716379165649414,-0.29922157526016235,-0.008584439754486084,0.017836689949035645,-0.002307116985321045,0.8059751455657123,-0.47701588156868474,-0.3504925916497744,0.0038688522370398507
1710359354912148500,0.7681484375,0.14412446320056915,-0.04328109323978424,0.037666331976652145,-0.5612169504165649,0.7714067101478577,-0.2999453842639923,-0.004105925559997559,0.01960897445678711,-0.0076715052127838135,0.80619733317726,-0.4765484296867349,-0.35061217542197,0.004310414553731485
1710359354922166500,0.77816650390625,0.13461539149284363,-0.04181006923317909,0.04841990768909454,-0.5610496401786804,0.7712932825088501,-0.30054932832717896,0.00140303373336792,0.011009573936462402,-0.010592371225357056,0.8063815592563955,-0.4761381033822409,-0.3507389841913484,0.004840259335862706
1710359354932185300,0.788185302734375,0.1253579705953598,-0.03113984689116478,0.05707438290119171,-0.5607057809829712,0.7713098526000977,-0.301147997379303,0.003546297550201416,0.014822959899902344,-0.006774097681045532,0.8065636163934269,-0.4757995252509371,-0.3507717322493921,0.005394781719233986
1710359354942203600,0.79820361328125,0.11915839463472366,-0.027777500450611115,0.060523442924022675,-0.5602307319641113,0.771426260471344,-0.30173367261886597,0.004337728023529053,0.018048346042633057,-0.013009130954742432,0.806741217931797,-0.47552006933538227,-0.35073326884478934,0.0059631945448048035
1710359354952222500,0.808222412109375,0.10250218212604523,-0.02660650759935379,0.060647811740636826,-0.559826672077179,0.7714822292327881,-0.30233991146087646,0.005032360553741455,0.013750433921813965,-0.02029171586036682,0.806925027085146,-0.4752203284135811,-0.3507074077798989,0.006483821512580433
1710359354962241500,0.818241455078125,0.07540851831436157,-0.017628617584705353,0.06429074704647064,-0.5594931840896606,0.771487295627594,-0.30294331908226013,0.008620381355285645,0.010128915309906006,-0.016758590936660767,0.8071082799578433,-0.47492807840863355,-0.3506731472543174,0.006916033605071675
1710359354972259600,0.828259521484375,0.0346728079020977,-0.00139691773802042,0.06400605291128159,-0.5591009259223938,0.7715991735458374,-0.30338263511657715,0.007907629013061523,0.008659124374389648,-0.00907135009765625,0.8072413914242564,-0.4747681858742717,-0.35057644786360603,0.007265347795311596
1710359354982278700,0.838278564453125,-0.0014487123116850853,0.012782391160726547,0.06337781250476837,-0.5585879683494568,0.7719536423683167,-0.3034258782863617,0.004007220268249512,0.0054360032081604,0.0017293095588684082,0.8072522976583579,-0.47486356372796756,-0.3504164013505057,0.0075399713636419684
1710359354992297500,0.84829736328125,-0.009418753907084465,0.024855565279722214,0.06954330205917358,-0.5579565167427063,0.7723968625068665,-0.30345994234085083,0.00032395124435424805,0.0012391209602355957,-0.0019292235374450684,0.807260610775947,-0.47503266709252756,-0.3501628127887518,0.007777152182588875
1710359355002315500,0.8583154296875,-0.01728147082030773,0.0290193110704422,0.07045622915029526,-0.557270884513855,0.7728509306907654,-0.3035634458065033,-0.001399219036102295,-0.0007255673408508301,-0.004053473472595215,0.8072905346153785,-0.47520623046459126,-0.34985327027079316,0.007991873063136878
1710359355012334600,0.86833447265625,-0.002807190176099539,0.034224193543195724,0.07063253223896027,-0.5565388202667236,0.7733423709869385,-0.30365505814552307,0.00026428699493408203,0.006168246269226074,-0.003000617027282715,0.8073167585908886,-0.47540534875638046,-0.349517133240716,0.008206980879557181
1710359355022352400,0.878352294921875,0.0057583339512348175,0.03484353795647621,0.07104585319757462,-0.5557717680931091,0.7737799286842346,-0.3039450943470001,0.00361710786819458,0.007638156414031982,-0.0037024319171905518,0.8074040757952504,-0.4755233562629829,-0.34914896112399024,0.008450479412110884
1710359355032371500,0.888371337890625,0.007319745607674122,0.02886180952191353,0.07352232933044434,-0.5550113916397095,0.7741616368293762,-0.30436232686042786,0.006503582000732422,0.003746926784515381,-0.009342938661575317,0.8075305291920852,-0.4755781589263976,-0.34877536070103893,0.008707402941053296
1710359355042390500,0.898390625,0.0020797098986804485,0.03033486008644104,0.07983960956335068,-0.5542222857475281,0.7745926380157471,-0.3047034442424774,0.009910643100738525,0.008061408996582031,-0.011946767568588257,0.8076330723345106,-0.47566820197125836,-0.34840786142130503,0.00898642579008985
1710359355052408600,0.90840869140625,0.019039783626794815,0.04615643247961998,0.08479682356119156,-0.5533959865570068,0.7750417590141296,-0.3050631880760193,0.009923577308654785,0.014890730381011963,-0.012273639440536499,0.8077412063685456,-0.4757635686287961,-0.34801930859127755,0.009272564004222725
1710359355062427600,0.918427734375,0.009420180693268776,0.05134134367108345,0.0948670282959938,-0.5525591969490051,0.7755012512207031,-0.30541151762008667,0.006538689136505127,0.01205068826675415,-0.019280046224594116,0.8078456970124327,-0.4758728237109232,-0.3476194662244514,0.009547295964807877
1710359355072446500,0.928446533203125,-0.0244445763528347,0.05008379742503166,0.11078501492738724,-0.5516652464866638,0.7760481238365173,-0.3056384027004242,0.007475733757019043,0.009626924991607666,-0.02958175539970398,0.8079127703259618,-0.476064684502853,-0.34719334972554067,0.009808178786467146
1710359355082464500,0.938464599609375,-0.07233460247516632,0.05635948106646538,0.12218201160430908,-0.5506868958473206,0.7767658233642578,-0.30557990074157715,0.013134896755218506,0.010908305644989014,-0.025932371616363525,0.8078919320887765,-0.4764288193130335,-0.3467356832749198,0.01003617785689459
1710359355092483600,0.948483642578125,-0.1254793107509613,0.07118289917707443,0.12196017056703568,-0.5495734214782715,0.7777235507965088,-0.3051477372646332,0.008237361907958984,-0.0017225146293640137,-0.02012363076210022,0.8077561093667219,-0.4770397553973519,-0.3462068766321022,0.010196237732535793
1710359355102501400,0.95850146484375,-0.1671774983406067,0.10152589529752731,0.12555570900440216,-0.5483471155166626,0.7788438200950623,-0.304496169090271,-0.006035268306732178,-0.00888526439666748,-0.02584114670753479,0.8075539008779392,-0.4778411562416727,-0.34557162969562083,0.01024225635117869
1710359355112520400,0.9685205078125,-0.21671229600906372,0.131261944770813,0.1349276304244995,-0.5469716191291809,0.7801017761230469,-0.3037492632865906,-0.016627132892608643,-0.008647680282592773,-0.034568458795547485,0.8073239117948607,-0.4788065835327709,-0.3447747497249531,0.010148322306870237
1710359355122539500,0.97853955078125,-0.2541850805282593,0.14079958200454712,0.1475837677717209,-0.5453924536705017,0.7815747261047363,-0.3028004467487335,-0.013796389102935791,-0.0038341879844665527,-0.04833456873893738,0.80703180427678,-0.4799682678822921,-0.3438462370381663,0.009997792413314907
1710359355132557300,0.988557373046875,-0.2760571241378784,0.15082691609859467,0.15653519332408905,-0.5436822772026062,0.7832121253013611,-0.30164316296577454,-0.0038031935691833496,0.0018832683563232422,-0.06066131591796875,0.8066753666289511,-0.48128024084913257,-0.3428523779644682,0.00982678891927497
1710359355142576400,0.998576416015625,-0.31886929273605347,0.17795121669769287,0.16910317540168762,-0.5418726801872253,0.7849185466766357,-0.30046120285987854,0.005999267101287842,-0.005026459693908691,-0.04605039954185486,0.8063118412869233,-0.48267186730261724,-0.3417561476521894,0.00958350320462459
1710359355152595500,1.008595458984375,-0.38899990916252136,0.2079373449087143,0.17315678298473358,-0.5399021506309509,0.7867926359176636,-0.29910412430763245,0.007675528526306152,-0.023547887802124023,-0.00765836238861084,0.8058956084345251,-0.4842638881688494,-0.3404943824537259,0.009193035627065456
1710359355162613500,1.018613525390625,-0.37961918115615845,0.22204560041427612,0.17349553108215332,-0.5378151535987854,0.7888144254684448,-0.2975345849990845,0.001514434814453125,-0.027904272079467773,0.0228765606880188,0.8054139968375791,-0.48603110569931757,-0.33912603595258395,0.00870165630602358
1710359355172632600,1.028632568359375,-0.26912516355514526,0.22804170846939087,0.1756598800420761,-0.5358203649520874,0.790605366230011,-0.2963780164718628,-0.000007331371307373047,-0.015641868114471436,0.037528157234191895,0.8050595188787688,-0.4875547923053168,-0.337788858036283,0.008265668193404609
1710359355182650600,1.038650634765625,-0.13713783025741577,0.24514776468276978,0.18154679238796234,-0.5338215827941895,0.7920077443122864,-0.29624083638191223,0.0010913610458374023,0.005813539028167725,0.03365251421928406,0.8050195445695416,-0.4885689926791051,-0.33642223175304414,0.008014576717487086
1710359355192669400,1.04866943359375,0.012622365728020668,0.26858144998550415,0.1935850828886032,-0.5317078232765198,0.7930271625518799,-0.2973126471042633,0.0021362900733947754,0.04512292146682739,0.021571308374404907,0.8053526902637972,-0.48903398082056915,-0.3349469218796219,0.00796771068817305
1710359355202688500,1.0586884765625,0.15802431106567383,0.2698184549808502,0.20846150815486908,-0.529281735420227,0.7938452959060669,-0.29945075511932373,0.004547119140625,0.07999515533447266,-0.005572199821472168,0.8060130645040473,-0.4890294168073453,-0.33335393905296135,0.0082751160737014
1710359355212706600,1.06870654296875,0.24921494722366333,0.2533337473869324,0.22556352615356445,-0.5267472863197327,0.7943956255912781,-0.30244535207748413,0.009764134883880615,0.08292394876480103,-0.03404131531715393,0.8069351774101979,-0.4885866749864605,-0.3317534983338657,0.008862140617465698
1710359355222725400,1.078725341796875,0.2924351096153259,0.26556161046028137,0.24899853765964508,-0.5240752696990967,0.7947879433631897,-0.3060348927974701,0.018673598766326904,0.06385475397109985,-0.04131597280502319,0.8080374704863624,-0.48786228914180524,-0.33011049603910386,0.009642088948784207
1710359355232744400,1.088744384765625,0.12532441318035126,0.31116318702697754,0.3009978234767914,-0.5209882259368896,0.795550525188446,-0.30930715799331665,0.015327095985412598,0.04154688119888306,-0.059421271085739136,0.8090397878272211,-0.4874387990468153,-0.3282527039768329,0.010412361228975379
1710359355242762500,1.098762451171875,-0.031191959977149963,0.3215126693248749,0.342229425907135,-0.5173962712287903,0.7971124649047852,-0.31130877137184143,0.0000011324882507324219,0.044486284255981445,-0.09545984864234924,0.8096499658272255,-0.48781653147334,-0.32616046823446676,0.011023982359530874
1710359355252781300,1.10878125,-0.1267128884792328,0.3055174648761749,0.35302188992500305,-0.5136315822601318,0.7991791367530823,-0.31224238872528076,-0.004907846450805664,0.046630859375,-0.09771522879600525,0.8099308718011596,-0.48874494541690633,-0.3240481092053595,0.011541324066424866
1710359355262799600,1.118799560546875,-0.1383003145456314,0.29668354988098145,0.39363083243370056,-0.5096920728683472,0.8015300631523132,-0.3126718997955322,0.0012233853340148926,0.04893392324447632,-0.07816648483276367,0.810055511028733,-0.48993408269883154,-0.32191403348816194,0.012087761215983267
1710359355272818700,1.128818603515625,-0.04349895939230919,0.27304667234420776,0.4418873190879822,-0.5054234266281128,0.8039674162864685,-0.31334275007247925,0.010474026203155518,0.07777708768844604,-0.05418020486831665,0.8102494817046306,-0.49102052368450255,-0.3197303157542903,0.012931453292256334
1710359355282837500,1.13883740234375,0.1598682701587677,0.26970356702804565,0.4873541295528412,-0.5007932782173157,0.8061729669570923,-0.3151051998138428,0.016113102436065674,0.12227863073348999,-0.05304339528083801,0.8107709397694453,-0.4915834628783579,-0.31747929489357296,0.014252579350104022
1710359355292855600,1.14885546875,0.42647814750671387,0.3163682520389557,0.5081137418746948,-0.4958409070968628,0.8077318072319031,-0.31892216205596924,0.00911596417427063,0.15895837545394897,-0.042833030223846436,0.8119141081916235,-0.4912072409086661,-0.31504661745965656,0.01602245656397329
1710359355302874600,1.15887451171875,0.6541909575462341,0.38755056262016296,0.5670002102851868,-0.49035176634788513,0.8086197972297668,-0.3250991106033325,-0.011616677045822144,0.1614425778388977,-0.053318679332733154,0.8137679018219459,-0.4898500284557617,-0.3122457371365574,0.01820898686309847
1710359355312893400,1.1688935546875,0.665257453918457,0.42827215790748596,0.592619001865387,-0.48426005244255066,0.8092523217201233,-0.3325704336166382,-0.029335618019104004,0.11793285608291626,-0.059717535972595215,0.8160019576014315,-0.4880447624064487,-0.3090745745392941,0.020644486474799863
1710359355322911500,1.178911376953125,0.4320984482765198,0.474487841129303,0.5971341729164124,-0.4779212176799774,0.810217559337616,-0.33932143449783325,-0.028136610984802246,0.033395230770111084,-0.03882169723510742,0.8180089142855066,-0.4866963721625019,-0.3057219682001345,0.022853455341021105
1710359355332930600,1.1889306640625,0.03592821955680847,0.506377100944519,0.5908373594284058,-0.47136813402175903,0.8122639060020447,-0.34356874227523804,-0.016073912382125854,-0.0516895055770874,-0.02293190360069275,0.8192598523699565,-0.4867121147810384,-0.30220348256801954,0.024447939476386855
1710359355342948400,1.1989482421875,-0.20278342068195343,0.4681648313999176,0.5747060775756836,-0.46491721272468567,0.8153495192527771,-0.3450469374656677,-0.0020780861377716064,-0.09202176332473755,-0.04370105266571045,0.8196788333645979,-0.4880640381419947,-0.29878089667133745,0.025500276005004156
1710359355352967400,1.208967529296875,-0.17543329298496246,0.42965394258499146,0.5793458223342896,-0.4586397409439087,0.8187297582626343,-0.3454434871673584,0.011953890323638916,-0.07005715370178223,-0.0770416259765625,0.8197692760202362,-0.4898267136430699,-0.29554703712816854,0.026459373623531714
1710359355362986500,1.218986572265625,0.06021784991025925,0.38007107377052307,0.6070837378501892,-0.4523901045322418,0.821628987789154,-0.3467986285686493,0.019421905279159546,-0.012424767017364502,-0.0858336091041565,0.8201377681736498,-0.49099108359317145,-0.29245246186809465,0.027813649141089865
1710359355373004500,1.229004638671875,0.19720153510570526,0.3624798357486725,0.640874981880188,-0.4459182322025299,0.8239904046058655,-0.34956687688827515,0.020335257053375244,0.04968225955963135,-0.06631118059158325,0.8209162729442665,-0.49141567580744133,-0.2893565197216762,0.02966605915376302
1710359355383023600,1.239023681640625,0.3911859393119812,0.33466506004333496,0.6569538116455078,-0.4393232762813568,0.8258447051048279,-0.35351914167404175,0.01778388023376465,0.09859389066696167,-0.07642751932144165,0.8220347661897801,-0.49120235093032566,-0.28628774400462187,0.03191524153041886
1710359355393042700,1.249042724609375,0.39858683943748474,0.34331631660461426,0.6436284184455872,-0.4327029585838318,0.827218770980835,-0.35843732953071594,-0.0015774667263031006,0.06717520952224731,-0.10187432169914246,0.823430078157015,-0.4904772291002363,-0.28321974183045273,0.034375028643125916
1710359355403060500,1.259060546875,0.1717776656150818,0.3624863028526306,0.6448470950126648,-0.4261060953140259,0.8289227485656738,-0.36238205432891846,-0.026698529720306396,-0.03842580318450928,-0.05712759494781494,0.824532805824561,-0.49024027987464475,-0.28013110091908283,0.03656212896823724
1710359355413079600,1.26907958984375,0.034450698643922806,0.36580488085746765,0.6636434197425842,-0.4193025231361389,0.8313778638839722,-0.3646869659423828,-0.042535364627838135,-0.059725403785705566,-0.006559163331985474,0.8251429245091746,-0.49085127781577154,-0.2769865266975005,0.038509029786255915
1710359355423098600,1.2790986328125,0.021793227642774582,0.34576791524887085,0.646855890750885,-0.4125233292579651,0.8340188264846802,-0.366383820772171,-0.0378246009349823,-0.0297432541847229,0.020268887281417847,0.8255675252086863,-0.4917235152604454,-0.2738906361755124,0.040375445597238754
1710359355433116400,1.289116455078125,0.09209242463111877,0.31863242387771606,0.6814610362052917,-0.40576839447021484,0.836539089679718,-0.36817750334739685,-0.03479868173599243,0.004769682884216309,0.022550880908966064,0.8260114693671681,-0.4924828287674757,-0.2708724949279086,0.04235598767997879
1710359355443135500,1.299135498046875,0.23019757866859436,0.27028316259384155,0.7177172899246216,-0.3987566828727722,0.8387920260429382,-0.37070390582084656,-0.039002835750579834,0.04818636178970337,0.01979765295982361,0.8266491524545592,-0.4928404374196942,-0.2678737648097732,0.04475947414785081
1710359355453153300,1.3091533203125,0.27465689182281494,0.24084430932998657,0.7080569267272949,-0.3918136656284332,0.840636134147644,-0.37391602993011475,-0.045777976512908936,0.04693734645843506,0.02420005202293396,0.8274704531229906,-0.4927609524687729,-0.2650068331895319,0.04744386738951433
1710359355463172400,1.31917236328125,0.19411438703536987,0.26671332120895386,0.7371280193328857,-0.38478392362594604,0.842536449432373,-0.37692686915397644,-0.05691230297088623,0.02520054578781128,0.029331862926483154,0.8282212960867781,-0.49277639616706903,-0.2621220744960403,0.05013049199864517
1710359355473191400,1.32919140625,0.07399198412895203,0.27545273303985596,0.7636024951934814,-0.37736040353775024,0.8449191451072693,-0.37909218668937683,-0.060154855251312256,0.018789470195770264,0.029421955347061157,0.8287119156539904,-0.49328689505217027,-0.2590790398433433,0.05275161491275109
1710359355483209500,1.33920947265625,0.006143161561340094,0.25599759817123413,0.7497551441192627,-0.369909405708313,0.847610354423523,-0.38042590022087097,-0.0623416006565094,-0.009063482284545898,0.028009116649627686,0.8289480978966429,-0.49417267309645685,-0.2560867411185822,0.055300329051650506
1710359355493228500,1.349228515625,-0.11954285949468613,0.2501426339149475,0.7030128836631775,-0.36275047063827515,0.8504776358604431,-0.38092008233070374,-0.07340681552886963,-0.07412558794021606,0.05444324016571045,0.8289376522370311,-0.4953821236497866,-0.2532518727699916,0.05764192776233521
1710359355503247600,1.35924755859375,-0.2767883837223053,0.2576356530189514,0.698417603969574,-0.355837881565094,0.8537649512290955,-0.38008561730384827,-0.09702777862548828,-0.10939526557922363,0.0768020749092102,0.828544430039204,-0.4971859868403468,-0.2505260130609071,0.05964163904686124
1710359355513265400,1.369265380859375,-0.28370437026023865,0.2428993135690689,0.7268820405006409,-0.3487367033958435,0.8573901653289795,-0.37850356101989746,-0.13084709644317627,-0.11332571506500244,0.07312965393066406,0.8279213885940381,-0.49935268331289534,-0.24778037258125124,0.06162842891635154
1710359355523284500,1.379284423828125,-0.21064427495002747,0.22792793810367584,0.704227864742279,-0.34165483713150024,0.8608220815658569,-0.3771704137325287,-0.16009998321533203,-0.1459476351737976,0.0687142014503479,0.8273606140239446,-0.5013476341310346,-0.24508231481897624,0.0637163393029189
1710359355533302500,1.389302490234375,-0.12797735631465912,0.22716467082500458,0.6488513946533203,-0.33493494987487793,0.8637611865997314,-0.37647756934165955,-0.19578105211257935,-0.1988135576248169,0.05480724573135376,0.8269924374706622,-0.5029528655243966,-0.24248633614467935,0.06574551203758497
1710359355543321300,1.3993212890625,-0.06587696820497513,0.23313000798225403,0.6142974495887756,-0.32859116792678833,0.8662034869194031,-0.37645646929740906,-0.23305439949035645,-0.24137121438980103,0.029380202293395996,0.8268294383037519,-0.5041651612507803,-0.23997762303631712,0.06768612428325026
1710359355553340400,1.40934033203125,-0.17790737748146057,0.2725362479686737,0.5432386994361877,-0.3225674033164978,0.8685343265533447,-0.37629571557044983,-0.2552371919155121,-0.3018075227737427,0.006590723991394043,0.8266453431072193,-0.5054212550179581,-0.23748999010205918,0.06932096582926639
1710359355563358500,1.4193583984375,-0.2811884880065918,0.3016415238380432,0.4369596540927887,-0.31719258427619934,0.870994508266449,-0.3751766085624695,-0.27381086349487305,-0.3781050443649292,-0.0027681291103363037,0.8262185785974284,-0.5070712779114378,-0.23513914788924933,0.07036494513611456
1710359355573377300,1.429377197265625,-0.4654821753501892,0.38862091302871704,0.33095866441726685,-0.3125828802585602,0.8735623359680176,-0.3730696439743042,-0.3068171739578247,-0.460445761680603,-0.008109956979751587,0.8255556753550338,-0.5091419164308426,-0.2328941591477025,0.07065939330963228
1710359355583396400,1.439396240234375,-0.7789314389228821,0.509357750415802,0.28559571504592896,-0.3082054555416107,0.8767947554588318,-0.3691074252128601,-0.3371955454349518,-0.534845232963562,-0.013689547777175903,0.8244051253135404,-0.5121862494435003,-0.23045939549279906,0.07007055659621005
1710359355593414700,1.44941455078125,-1.2355389595031738,0.5870208740234375,0.2199956476688385,-0.3039039671421051,0.8812839388847351,-0.3619130849838257,-0.3539787530899048,-0.6009646058082581,-0.025873512029647827,0.8223466646130835,-0.5168322670018959,-0.227876858743582,0.06857503890573141
1710359355603433500,1.45943359375,-1.6336101293563843,0.6785258054733276,0.08992926776409149,-0.30017611384391785,0.8869248628616333,-0.3510821759700775,-0.36916598677635193,-0.6511611938476562,-0.02397865056991577,0.8192625474229596,-0.5231555516579076,-0.22531574362144585,0.06595494170106597
1710359355613451500,1.469451416015625,-1.9191291332244873,0.7810212969779968,-0.03914402797818184,-0.2973567247390747,0.8931634426116943,-0.3373991549015045,-0.40190786123275757,-0.6747337579727173,-0.013568103313446045,0.8153750753350095,-0.530717476377741,-0.222798986136192,0.062154318357076306
1710359355623470600,1.479470703125,-2.2092742919921875,0.9053156971931458,-0.12669385969638824,-0.2953222990036011,0.8997201919555664,-0.32138553261756897,-0.4584466814994812,-0.6978309154510498,-0.028940826654434204,0.810809919471523,-0.5392729836096377,-0.22020871303100215,0.057273874971908695
1710359355633489400,1.489489501953125,-2.5550646781921387,1.0227200984954834,-0.2058485895395279,-0.2937867343425751,0.9066721200942993,-0.30271321535110474,-0.5279449224472046,-0.691339910030365,-0.03551286458969116,0.8054304331892561,-0.5489850421896745,-0.21739091808950345,0.05136732614458227
1710359355643507500,1.499507568359375,-2.8550796508789062,1.1242820024490356,-0.3264860510826111,-0.293040007352829,0.9138341546058655,-0.2811312973499298,-0.5930989980697632,-0.6630253195762634,-0.027950525283813477,0.7991211782313957,-0.5598598040229743,-0.21445592503182961,0.044397295258005925
1710359355653526500,1.509526611328125,-3.160461187362671,1.265339970588684,-0.47856613993644714,-0.29350602626800537,0.9207527041435242,-0.25703904032707214,-0.6418273448944092,-0.6623601317405701,-0.029444485902786255,0.7919647389200719,-0.5716398229819707,-0.2114435799488854,0.03621659990107115
1710359355663545300,1.51954541015625,-3.510418176651001,1.4271684885025024,-0.5953356623649597,-0.2952015995979309,0.9272990226745605,-0.23015807569026947,-0.6827342510223389,-0.6853708028793335,-0.03384929895401001,0.7838159792151851,-0.5844423267339532,-0.20820213422335596,0.026677327684893747
1710359355673563100,1.529563232421875,-3.86746883392334,1.592473030090332,-0.6730759739875793,-0.2979127764701843,0.9333521127700806,-0.20025473833084106,-0.738296389579773,-0.727571964263916,-0.06427139043807983,0.7745151926248027,-0.5983319044721601,-0.20462542708711665,0.01592613543714991
1710359355683582000,1.53958203125,-4.3941826820373535,1.8536361455917358,-0.5975732207298279,-0.3008368909358978,0.9389700293540955,-0.16683107614517212,-0.8002374172210693,-0.8017781376838684,-0.08867710828781128,0.7638057353585502,-0.6136029095246549,-0.2001897466006961,0.004054142043373598
1710359355693601000,1.54960107421875,-5.075840473175049,2.081615686416626,-0.48949867486953735,-0.3029511868953705,0.9443610310554504,-0.12807370722293854,-0.8279998302459717,-0.8278449177742004,-0.04402993619441986,0.7509721916197376,-0.6310391182641689,-0.19430074836475325,-0.008812652901804137
1710359355703619300,1.559619384765625,-5.539292335510254,2.2627646923065186,-0.5842605829238892,-0.3056407868862152,0.9484217166900635,-0.08414287120103836,-0.8156208395957947,-0.7080041766166687,0.007650800049304962,0.73589847743262,-0.6502320606803037,-0.18742153259020672,-0.022910545154122566
1710359355713638100,1.56963818359375,-5.678487300872803,2.3153727054595947,-0.6211233139038086,-0.3100777268409729,0.9499576687812805,-0.03784951940178871,-0.7804985046386719,-0.5805575251579285,0.08667784929275513,0.7193658357609002,-0.6697736023744211,-0.18021809389160184,-0.03791748491577709
1710359355723656200,1.57965625,-5.731434345245361,2.3271477222442627,-0.5468721985816956,-0.31528815627098083,0.948950469493866,0.009320111945271492,-0.7756390571594238,-0.5217804312705994,0.10228288173675537,0.7018078398779652,-0.6891041841178173,-0.1726136714284869,-0.05297086241005725
1710359355733675300,1.58967529296875,-5.327772617340088,2.331514358520508,-0.6352947950363159,-0.32151415944099426,0.9453291296958923,0.05460396409034729,-0.7952461242675781,-0.46199166774749756,0.15793585777282715,0.6841790410043989,-0.7071889025812469,-0.1648812853452238,-0.0678019225784808
1710359355743694000,1.599694091796875,-5.201424598693848,2.302854299545288,-0.7829236388206482,-0.3299967050552368,0.9390562772750854,0.09631025791168213,-0.8639273047447205,-0.49166858196258545,0.24496804177761078,0.6670925149198146,-0.7233837843947629,-0.157705518572307,-0.08265899888602503
1710359355753712000,1.609712158203125,-5.595787525177002,2.1859195232391357,-0.9194130301475525,-0.34058621525764465,0.9298222064971924,0.13939779996871948,-0.9685416221618652,-0.4801456928253174,0.33342647552490234,0.648633282594157,-0.7395313880677697,-0.15097094323733648,-0.09785701177373948
1710359355763731200,1.619731201171875,-5.5087151527404785,2.164994955062866,-1.026541829109192,-0.35318508744239807,0.9173552989959717,0.18363042175769806,-1.0221507549285889,-0.22092872858047485,0.46872878074645996,0.6287786660991774,-0.7555479620574743,-0.14478428396854356,-0.11323607029272971
1710359355773750000,1.62975,-5.239142417907715,2.291806221008301,-0.9448832273483276,-0.36679762601852417,0.902811586856842,0.22447992861270905,-1.0016107559204102,-0.06856763362884521,0.5729446411132812,0.6092823138641499,-0.7701067097191499,-0.13847606571907192,-0.12858971372353775
1710359355783768000,1.63976806640625,-5.20595645904541,2.5880677700042725,-0.7620580196380615,-0.38034480810165405,0.8870134949684143,0.26181137561798096,-0.932933509349823,-0.10016345977783203,0.6394339799880981,0.5901725287990219,-0.7834485393185007,-0.1308207482710244,-0.14419018667162817
1710359355793787100,1.649787109375,-5.491556644439697,2.8206942081451416,-0.5769310593605042,-0.39374032616615295,0.8692918419837952,0.2988320291042328,-0.8574347496032715,-0.06941080093383789,0.6225550174713135,0.5700349910868818,-0.7966413525861806,-0.12156713375189825,-0.1601381213979907
1710359355803805200,1.65980517578125,-5.513495445251465,2.9358792304992676,-0.3910171091556549,-0.4071679711341858,0.8498256802558899,0.3346804082393646,-0.7877479791641235,-0.07173413038253784,0.5352691411972046,0.5491651208501325,-0.8093454583075389,-0.11090598854803216,-0.17628849167171542
1710359355813824300,1.66982421875,-5.626089572906494,3.0053412914276123,-0.15927283465862274,-0.41999614238739014,0.8290121555328369,0.36924564838409424,-0.6736776828765869,-0.18622040748596191,0.5125600099563599,0.5276922745233601,-0.8214950936117189,-0.09883640854433406,-0.19214096939388936
1710359355823843300,1.67984326171875,-5.404727935791016,3.187958002090454,0.04357188940048218,-0.43232959508895874,0.8074549436569214,0.40138229727745056,-0.5467811822891235,-0.14693254232406616,0.49998506903648376,0.5061656899055801,-0.8326938439910307,-0.08551086856403857,-0.2076178822775626
1710359355833861000,1.689861083984375,-5.2060933113098145,3.4053213596343994,0.2278892695903778,-0.44508054852485657,0.7860387563705444,0.42900627851486206,-0.5773804187774658,0.0019402503967285156,0.44240802526474,0.4854505408867682,-0.8422881705756111,-0.07108987488415715,-0.22323672294723218
1710359355843880200,1.699880126953125,-5.547636032104492,3.560065269470215,0.4777699410915375,-0.45775434374809265,0.7639620304107666,0.4547784924507141,-0.6346225738525391,0.016219913959503174,0.4691261649131775,0.4642690867442535,-0.8510916024968695,-0.05506664667049638,-0.23888313408487347
1710359355853899300,1.709899169921875,-5.961212158203125,3.640167236328125,0.6909538507461548,-0.47035446763038635,0.7396528720855713,0.48133254051208496,-0.5555856823921204,0.026948750019073486,0.6234040856361389,0.4411571887598863,-0.8598115461240871,-0.037287681407813064,-0.25439005020316624
1710359355863917000,1.7199169921875,-6.270726203918457,3.5864012241363525,1.0602164268493652,-0.4819980263710022,0.7133734822273254,0.5087003707885742,-0.5048336386680603,0.040654659271240234,0.6460238695144653,0.4162666692647876,-0.8683516474452018,-0.017764842441817058,-0.26902016465962864
1710359355873936100,1.72993603515625,-6.283846855163574,3.6528661251068115,1.40305757522583,-0.4922724664211273,0.686484694480896,0.535169780254364,-0.49870970845222473,-0.010550975799560547,0.660341203212738,0.39060427344148224,-0.8761116549829336,0.003643060299359029,-0.2825658394208982
1710359355883955200,1.739955078125,-5.994349956512451,3.776564598083496,1.7502474784851074,-0.5021892786026001,0.660508930683136,0.558152437210083,-0.5035328269004822,0.05488407611846924,0.7785329222679138,0.36545854872418754,-0.882255668404755,0.026479266393365987,-0.2955738616962149
1710359355893973000,1.749972900390625,-5.449452877044678,3.743436098098755,2.185394525527954,-0.5109586119651794,0.637945830821991,0.5761482119560242,-0.5185062289237976,0.19963955879211426,0.8080682754516602,0.3423535236015864,-0.8862971438648896,0.0505122895012125,-0.30776628682224144
1710359355903992000,1.759991943359375,-4.876183986663818,3.756272554397583,2.4986066818237305,-0.5181459784507751,0.6196515560150146,0.5895395278930664,-0.4292265772819519,0.2488328218460083,0.8126212954521179,0.32176051085410884,-0.8883162352675286,0.07525966410570188,-0.318905086196131
1710359355914010000,1.770010009765625,-4.660703659057617,3.7802767753601074,2.801750659942627,-0.5244264602661133,0.6050257682800293,0.5990998148918152,-0.3372069001197815,0.23675572872161865,0.8249417543411255,0.3031388995889771,-0.8884874241360017,0.1006975442594691,-0.32947971342760524
1710359355924029200,1.780029296875,-4.440157413482666,3.8213062286376953,3.125166416168213,-0.5296181440353394,0.5933342576026917,0.606184184551239,-0.2965080738067627,0.1424139142036438,0.8138903975486755,0.2857931802431461,-0.8870967174611093,0.12708856641894492,-0.3394557764138233
1710359355934048300,1.79004833984375,-4.179870128631592,3.788729429244995,3.421722173690796,-0.5335732698440552,0.5844185948371887,0.6113547086715698,-0.23167037963867188,0.0032582879066467285,0.826389491558075,0.26958493346766543,-0.8842238299549584,0.15435538563537876,-0.3487787881462672
1710359355944066000,1.800066162109375,-3.7664406299591064,3.687872886657715,3.7362120151519775,-0.5356816053390503,0.5791471600532532,0.6145195364952087,-0.12999850511550903,-0.033553898334503174,0.8402689099311829,0.25517208785668505,-0.8798220219387748,0.18213451500751565,-0.35725004177721664
1710359355954085000,1.810085205078125,-3.2553861141204834,3.6220853328704834,3.9479682445526123,-0.5359119176864624,0.5781475305557251,0.6152592897415161,-0.02138495445251465,0.04348021745681763,0.8410395979881287,0.24310121525939843,-0.873811314303454,0.2099605348287285,-0.36506463281338697
1710359355964104200,1.820104248046875,-2.721362590789795,3.507956027984619,4.197357654571533,-0.5342628359794617,0.5815507173538208,0.6134841442108154,0.04564565420150757,0.14389801025390625,0.8731036186218262,0.23358592743774528,-0.8662288308005897,0.2374651309874131,-0.37241884941026615
1710359355974122000,1.8301220703125,-2.1921699047088623,3.388056755065918,4.43137788772583,-0.5300489068031311,0.5895712375640869,0.609470784664154,0.1096232533454895,0.25585728883743286,0.8652303814888,0.22680268016854183,-0.8571276180964387,0.2647029222331036,-0.37924315594276226
1710359355984141000,1.84014111328125,-1.6895273923873901,3.2637951374053955,4.64684534072876,-0.523220419883728,0.6016702651977539,0.6035179495811462,0.1965143084526062,0.32704073190689087,0.8368967175483704,0.222551973452125,-0.8466284326012138,0.2915120414136647,-0.3856317387689949
1710359355994159000,1.8501591796875,-1.143571138381958,3.1968894004821777,4.842072486877441,-0.5135805010795593,0.6178413033485413,0.5954050421714783,0.23956310749053955,0.3798545002937317,0.813713550567627,0.22091146374035495,-0.8346654916862101,0.3178616866751838,-0.3917851491841485
1710359356004178000,1.860177978515625,-0.5707556009292603,3.059509754180908,4.93377685546875,-0.5013932585716248,0.6376148462295532,0.5848527550697327,0.2668348550796509,0.3985484838485718,0.8335281014442444,0.2218178268812094,-0.8213170980641342,0.34331416255132147,-0.3979581330109636
1710359356014197000,1.870197021484375,-0.010274161584675312,2.876878499984741,5.101527214050293,-0.4859829545021057,0.6607635617256165,0.5720250010490417,0.2915704846382141,0.3758270740509033,0.8155941367149353,0.22543123718733954,-0.8067409928060115,0.3676703293069654,-0.403941121954363
1710359356024215300,1.88021533203125,0.42726483941078186,2.689457654953003,5.1412882804870605,-0.46715623140335083,0.6864752173423767,0.5572409629821777,0.35918480157852173,0.30908459424972534,0.7911021113395691,0.23144529520523502,-0.7910657048285126,0.3909418388815593,-0.4096496236890488
1710359356034234000,1.890234130859375,0.8122551441192627,2.524965763092041,5.162321090698242,-0.44538524746894836,0.7134743332862854,0.5409128069877625,0.3962670564651489,0.1733207106590271,0.7681387662887573,0.23929995534736465,-0.7745765920991341,0.4129013301548301,-0.4150653391303588
1710359356044253200,1.900253173828125,1.0389293432235718,2.361318588256836,5.190254211425781,-0.4206765592098236,0.7409334182739258,0.5234972238540649,0.36878126859664917,0.034991323947906494,0.7621169090270996,0.24853238306854417,-0.7573335482833378,0.4338138950852496,-0.4200990258513997
1710359356054271200,1.910271240234375,1.2191129922866821,2.1864218711853027,5.2056565284729,-0.3931492865085602,0.7679150104522705,0.5057077407836914,0.35825231671333313,-0.06254702806472778,0.7674093842506409,0.25867782970413633,-0.7395403399491773,0.4537994512852495,-0.4245373642352485
1710359356064290000,1.9202900390625,1.5138778686523438,1.9644702672958374,5.266386032104492,-0.36246368288993835,0.7945401668548584,0.48716169595718384,0.37174081802368164,-0.09518390893936157,0.7507076859474182,0.2700648836517738,-0.7211604555804817,0.4727668052722099,-0.4283506516626775
1710359356074309000,1.93030908203125,1.7667287588119507,1.7924327850341797,5.344976425170898,-0.3285071849822998,0.8207466006278992,0.4673956334590912,0.383118212223053,-0.041296958923339844,0.7494929432868958,0.2828095015584689,-0.7020493682039876,0.4907387284360081,-0.43164937332933034
1710359356084327200,1.9403271484375,1.9510842561721802,1.7148686647415161,5.418822765350342,-0.2915511727333069,0.846019983291626,0.44637277722358704,0.36407598853111267,0.08201974630355835,0.7228930592536926,0.2965866068451724,-0.6820781281733075,0.50789350966473,-0.4345689796993859
1710359356094346000,1.950345947265625,2.041442394256592,1.6188793182373047,5.4519524574279785,-0.2521117925643921,0.8695294260978699,0.42468664050102234,0.29076215624809265,0.11589854955673218,0.7379416227340698,0.310842692291746,-0.6613406868150401,0.5243775476400951,-0.4370740098903853
1710359356104364000,1.960364013671875,2.1472411155700684,1.5705056190490723,5.432302951812744,-0.21065013110637665,0.8908703923225403,0.40246352553367615,0.1924157440662384,0.014708340167999268,0.767763614654541,0.32539284063302937,-0.639957747401005,0.5400794817549626,-0.4391900328825563
1710359356114383000,1.970383056640625,2.300905704498291,1.4816985130310059,5.3429274559021,-0.1680660992860794,0.9097956418991089,0.3795081079006195,0.1443690061569214,-0.06296306848526001,0.7875758409500122,0.3400869198356116,-0.6181331813062803,0.5546759635516216,-0.4411202895796028
1710359356124402000,1.98040185546875,2.3102853298187256,1.4275263547897339,5.383657455444336,-0.12412122637033463,0.9262068271636963,0.3559987545013428,0.13086546957492828,-0.060606181621551514,0.7708475589752197,0.35491145726739,-0.5957713926147196,0.5683800051450483,-0.44276242847942837
1710359356134420200,1.990420166015625,2.0772688388824463,1.2475858926773071,5.38189172744751,-0.07840928435325623,0.9393097758293152,0.33398982882499695,0.12490271031856537,-0.059640586376190186,0.7555488348007202,0.36947275215103487,-0.5732741454679181,0.5816800426860284,-0.44327756935794904
1710359356144439300,2.000439208984375,1.8879504203796387,1.090022087097168,5.263669967651367,-0.031823866069316864,0.9486454725265503,0.3147367835044861,0.12424622476100922,-0.08985018730163574,0.8163210153579712,0.3833921768265871,-0.5512908173733033,0.5945139354656488,-0.4423145061253184
1710359356154458000,2.0104580078125,1.823432445526123,0.8676518797874451,5.124927520751953,0.014737650752067566,0.9547566771507263,0.29702329635620117,0.13328775763511658,-0.12783700227737427,0.7991528511047363,0.39694189412080005,-0.5298792601190516,0.6064153872182455,-0.4403698439094593
1710359356164476200,2.02047607421875,2.003793478012085,0.6660154461860657,5.0450544357299805,0.06118285655975342,0.9583238959312439,0.27905604243278503,0.17868520319461823,-0.09392863512039185,0.7388273477554321,0.4107357185459003,-0.508812007586993,0.6169589617026097,-0.43791351553488417
1710359356174495200,2.0304951171875,2.0558645725250244,0.6040199995040894,5.043295383453369,0.10797055810689926,0.9595809578895569,0.2598975896835327,0.2460179626941681,0.022200047969818115,0.6151023507118225,0.42492606074222705,-0.4874339130183676,0.6263840521969596,-0.43530337840645594
1710359356184513000,2.040512939453125,2.0110247135162354,0.5682606101036072,4.926527976989746,0.1545085906982422,0.9581199884414673,0.2411087453365326,0.24011410772800446,0.09762042760848999,0.5104019641876221,0.43879635515535964,-0.46597162147710175,0.6351573207342069,-0.43232336517308795
1710359356194532000,2.050531982421875,1.9045295715332031,0.5403496026992798,4.817619323730469,0.199794203042984,0.9540442228317261,0.2233438342809677,0.1351056545972824,0.06333577632904053,0.47061076760292053,0.4519733063315903,-0.4448414493675389,0.6432635533141172,-0.4290087068462221
1710359356204551200,2.06055126953125,1.6700470447540283,0.5239071249961853,4.833642959594727,0.24458138644695282,0.9471343159675598,0.20764616131782532,0.06582808494567871,-0.0019284486770629883,0.36283421516418457,0.464410056288933,-0.4239865131373232,0.6511977563806722,-0.42485336463858697
1710359356214569200,2.0705693359375,1.643288493156433,0.5310947299003601,4.757168769836426,0.28890272974967957,0.9376407265663147,0.19330169260501862,0.11052656173706055,0.0011565089225769043,0.32680943608283997,0.47630841255836603,-0.40317361654407835,0.6588640862425688,-0.42009480321387505
1710359356224588000,2.080588134765625,1.433371901512146,0.5243797302246094,4.763245105743408,0.33218082785606384,0.9257670044898987,0.18058624863624573,0.1414213478565216,-0.0021066665649414062,0.27446138858795166,0.48750386154916253,-0.38262871212893346,0.6662494959438561,-0.4147853442336131
1710359356234607000,2.090607177734375,1.4133241176605225,0.6324768662452698,4.868951797485352,0.3755822479724884,0.911116898059845,0.16971880197525024,0.1569494903087616,0.0910501480102539,0.23048879206180573,0.4981431846145328,-0.3617872312654946,0.6737725164360544,-0.408649192524328
1710359356244625200,2.100625244140625,1.3186067342758179,0.7267298102378845,4.928990840911865,0.4186738431453705,0.8939517140388489,0.1598832607269287,0.20467808842658997,0.2466275691986084,0.2537062168121338,0.5081936451781357,-0.3403013380069516,0.6812757348932402,-0.40224076986575785
1710359356254644200,2.110644287109375,1.1187924146652222,0.8240651488304138,5.160459518432617,0.46209782361984253,0.8736118078231812,0.15253910422325134,0.1946709156036377,0.3374326229095459,0.2558014392852783,0.5176057098360011,-0.3183400646329259,0.6891510387786626,-0.3947338701592267
1710359356264663300,2.120663330078125,0.8068071007728577,0.8979816436767578,5.351598262786865,0.5062022805213928,0.8495707511901855,0.14828699827194214,0.1956561803817749,0.5017935037612915,0.25933635234832764,0.5263888668805436,-0.2958247688039098,0.6975895694125216,-0.385708887158149
1710359356274681000,2.13068115234375,0.41408059000968933,0.924652636051178,5.5346198081970215,0.5504089593887329,0.8216724991798401,0.1480027735233307,0.22177737951278687,0.610578715801239,0.3851088285446167,0.5344144537023283,-0.2733287717430273,0.7066065163654839,-0.3746999246637115
1710359356284700200,2.1407001953125,0.07809485495090485,0.9276153445243835,5.714298725128174,0.5945214629173279,0.7896841764450073,0.1514720469713211,0.2020789384841919,0.693363606929779,0.47688496112823486,0.5417989829462139,-0.2509062030349536,0.7160880519711282,-0.3615496195132036
1710359356294718000,2.150718017578125,-0.050093743950128555,0.8781836032867432,5.803555965423584,0.6376398205757141,0.7541706562042236,0.1569797843694687,0.16707825660705566,0.7796278595924377,0.5385310649871826,0.548752346429902,-0.2284848254588972,0.7254547371402331,-0.3469599527440403
1710359356304737000,2.160737060546875,-0.004414408002048731,0.8067536950111389,5.987667560577393,0.6796759963035583,0.7152048945426941,0.1628582924604416,0.13724905252456665,0.8626914024353027,0.674879789352417,0.5556443066135817,-0.20564057646481257,0.7342622826879935,-0.3314066866644955
1710359356314756000,2.170756103515625,0.018689045682549477,0.7408125400543213,6.149145603179932,0.7206392884254456,0.6725884675979614,0.16823695600032806,0.10377770662307739,0.9636725783348083,0.7574679851531982,0.5626205938300495,-0.18187845182724724,0.7423198165313576,-0.315181765985002
1710359356324774100,2.180774169921875,-0.16687016189098358,0.6783109903335571,6.313977241516113,0.7599303126335144,0.626335084438324,0.17381110787391663,0.05183720588684082,1.0299454927444458,0.8792895078659058,0.5694860350835598,-0.15766411437797723,0.7496983282263394,-0.29795988479568725
1710359356334793200,2.190793212890625,-0.4577600657939911,0.5716173052787781,6.419470310211182,0.79720538854599,0.5760757923126221,0.1805562973022461,-0.00591510534286499,1.0132951736450195,1.0094003677368164,0.5761119449651784,-0.13362487417297586,0.7565861120427035,-0.27895701819059393
1710359356344812000,2.20081201171875,-0.8747887015342712,0.5260498523712158,6.548131942749023,0.8318710923194885,0.5219258069992065,0.18863771855831146,-0.02616119384765625,0.9823315143585205,1.0429296493530273,0.5823593352564423,-0.11014335343769127,0.7630119949247525,-0.2579512622454554
1710359356354830000,2.210830078125,-1.3220930099487305,0.538813591003418,6.657593250274658,0.863487720489502,0.4636363983154297,0.19857215881347656,-0.07439452409744263,1.0252554416656494,1.1451168060302734,0.5879382887205369,-0.08735040827605794,0.7691917719231955,-0.23461190503147883
1710359356364849200,2.22084912109375,-1.662635087966919,0.5349775552749634,6.669651031494141,0.8912880420684814,0.4019847512245178,0.20979461073875427,-0.1690744161605835,1.106132984161377,1.2842391729354858,0.5926895071533659,-0.06539189146569947,0.774997553870352,-0.20933650877167242
1710359356374868200,2.2308681640625,-2.110841989517212,0.48840686678886414,6.6820831298828125,0.9149242639541626,0.33747798204421997,0.2214108258485794,-0.26785987615585327,1.1021126508712769,1.345132827758789,0.5967209063695933,-0.04447194237602838,0.7802100076719433,-0.18226074004877507
1710359356384886000,2.240885986328125,-2.5320963859558105,0.44401150941848755,6.590629577636719,0.9341110587120056,0.2706068158149719,0.23282718658447266,-0.3621811270713806,1.0913317203521729,1.3666601181030273,0.600071908691336,-0.025009621133267924,0.7847216802055783,-0.15329745465576267
1710359356394905000,2.250905029296875,-3.0524370670318604,0.3494940400123596,6.495543479919434,0.9486620426177979,0.20224638283252716,0.2431807816028595,-0.4357072710990906,1.0761045217514038,1.4172959327697754,0.6027987919320135,-0.007345811571525553,0.7883758154465349,-0.12265108275530814
1710359356404923100,2.260923095703125,-3.473062038421631,0.2039024531841278,6.251473903656006,0.9587002992630005,0.133178249001503,0.25131165981292725,-0.47768211364746094,1.0461584329605103,1.4382330179214478,0.6051166474320399,0.008160650362988686,0.790941991978793,-0.0904330159841763
1710359356414942000,2.27094189453125,-3.887450695037842,0.04609523341059685,5.9629597663879395,0.964453399181366,0.06493301689624786,0.25615230202674866,-0.5011047720909119,1.0733423233032227,1.4553498029708862,0.6071611349890994,0.02124917383136749,0.7922276374782554,-0.05726659835300094
1710359356424961000,2.2809609375,-4.253342151641846,-0.05468645319342613,5.585149765014648,0.9663116335868835,-0.0014982876600697637,0.25737130641937256,-0.572268545627594,1.1136810779571533,1.4755542278289795,0.6089028199509965,0.0317963860838248,0.792259197534966,-0.023492015455410284
1710359356434979300,2.290979248046875,-4.619206428527832,-0.1560351699590683,5.183966159820557,0.964791476726532,-0.06498642265796661,0.2548618018627167,-0.6360102295875549,1.1011345386505127,1.4868985414505005,0.6102934808272255,0.039577084774350804,0.7911160151559306,0.010541529976300446
1710359356444998100,2.300998046875,-4.874571800231934,-0.2929012179374695,4.76885986328125,0.9606185555458069,-0.12498071044683456,0.24817787110805511,-0.6995710134506226,1.1104391813278198,1.5322635173797607,0.6114977410855119,0.044773608505131866,0.7887231808466674,0.04451675137385355
1710359356455017200,2.311017333984375,-5.0291523933410645,-0.4150513708591461,4.337347507476807,0.9545060396194458,-0.18078301846981049,0.23714128136634827,-0.7413101196289062,1.2044495344161987,1.5466722249984741,0.6126576171131517,0.047623993446883124,0.7850494205610237,0.07797509572269684
1710359356465035300,2.32103515625,-5.044959545135498,-0.4970480799674988,3.9070749282836914,0.9470544457435608,-0.23162776231765747,0.22234392166137695,-0.810991644859314,1.2915490865707397,1.51653254032135,0.6137311134965281,0.048496156430710306,0.7802692396098894,0.11028280562288882
1710359356475054000,2.33105419921875,-5.163531303405762,-0.5347312688827515,3.5296645164489746,0.9386841058731079,-0.27764254808425903,0.20441864430904388,-0.8966002464294434,1.3483519554138184,1.462039589881897,0.6146514815460277,0.047666168697022636,0.7745561682014133,0.14140122547618944
1710359356485073200,2.3410732421875,-5.576623439788818,-0.49443790316581726,3.0964012145996094,0.9297798275947571,-0.3190947473049164,0.18354356288909912,-0.96159428358078,1.4127380847930908,1.3123977184295654,0.615286697471929,0.0443779986419554,0.7679859223534892,0.17219349962642333
1710359356495091200,2.35109130859375,-5.86330509185791,-0.4076225459575653,2.5567283630371094,0.9209787845611572,-0.3552822768688202,0.159915491938591,-1.0839730501174927,1.443981647491455,1.1785550117492676,0.6155519021024088,0.037968140528568166,0.7606025016335956,0.20282576202830735
1710359356505110000,2.361110107421875,-5.943717002868652,-0.3426968455314636,1.9310280084609985,0.9132027626037598,-0.384643018245697,0.13457629084587097,-1.2352699041366577,1.3786311149597168,1.0819917917251587,0.6155173385560677,0.02870201310760965,0.7526382513196876,0.2320569320907763
1710359356515128000,2.371128173828125,-6.115855693817139,-0.32734397053718567,1.1900105476379395,0.9073812961578369,-0.40627962350845337,0.10768631845712662,-1.4240589141845703,1.2736350297927856,1.003123164176941,0.6155073261513243,0.016428715701261167,0.7440250365519491,0.25943726744890117
1710359356525147100,2.381147216796875,-6.563023567199707,-0.4628526270389557,0.37491917610168457,0.9045166969299316,-0.41923579573631287,0.07804460823535919,-1.6631379127502441,1.2516639232635498,0.9645274877548218,0.6161445661262025,0.0003627360936330947,0.7341812933693624,0.28520802923100014
1710359356535166000,2.391166015625,-7.293644428253174,-0.7343257069587708,-0.4228634536266327,0.9049814343452454,-0.4232270419597626,0.043448202311992645,-1.845258355140686,1.213937520980835,0.9264615774154663,0.617997103050028,-0.020243510396311136,0.72202098375874,0.31041196671174903
1710359356545184300,2.401184326171875,-7.8692121505737305,-1.1673749685287476,-1.2128981351852417,0.9086575508117676,-0.417532354593277,0.002890311647206545,-1.962337851524353,1.1891694068908691,0.8847287893295288,0.6214571502400623,-0.045216473718438184,0.7066828328784375,0.3351804598254877
1710359356555203000,2.411203125,-8.310574531555176,-1.6753848791122437,-1.9132317304611206,0.9147855043411255,-0.4016003906726837,-0.043414030224084854,-2.045156478881836,1.1823316812515259,0.8695250153541565,0.6267330541268935,-0.07355873182256335,0.6876642337511635,0.35904423504002875
1710359356565222100,2.42122216796875,-8.458000183105469,-2.193664789199829,-2.6121139526367188,0.922243058681488,-0.37504279613494873,-0.09386640042066574,-2.107988119125366,1.2061281204223633,0.8519231677055359,0.6337390805403067,-0.10410164613232968,0.6650034934622461,0.3811930140853336
1710359356575240200,2.431240234375,-8.637215614318848,-2.6396450996398926,-3.231623411178589,0.9297701120376587,-0.3375774621963501,-0.14686496555805206,-2.216604709625244,1.2931134700775146,0.8096305727958679,0.6422556113904688,-0.13618716366072048,0.6387648830046991,0.40117375254114435
1710359356585259300,2.44125927734375,-8.905340194702148,-2.934659481048584,-3.8614468574523926,0.9360403418540955,-0.289185494184494,-0.20050011575222015,-2.3938193321228027,1.420502781867981,0.7413480281829834,0.6515242069795734,-0.16994484961994255,0.6089898957792624,0.4192449297910962
1710359356595278000,2.451278076171875,-9.107794761657715,-3.0366461277008057,-4.38102388381958,0.9400063753128052,-0.2299834042787552,-0.251983642578125,-2.5948829650878906,1.4834930896759033,0.6898499727249146,0.6607332307115998,-0.20540164957578766,0.576036749739299,0.43522813635542645
1710359356605296000,2.461296142578125,-9.166040420532227,-3.091304063796997,-4.8819966316223145,0.940635621547699,-0.1610913723707199,-0.29875463247299194,-2.7786786556243896,1.3884779214859009,0.6268797516822815,0.6692744054182893,-0.2420564795625005,0.5403992474307375,0.44883092367565064
1710359356615315200,2.471315185546875,-8.865987777709961,-3.165861129760742,-5.399959087371826,0.9369204640388489,-0.0837518721818924,-0.3393607437610626,-2.946594476699829,1.3642696142196655,0.5375115871429443,0.6773609436918261,-0.2788654904245402,0.5025471794954149,0.45919773662138674
1710359356625333000,2.4813330078125,-8.248045921325684,-3.1675844192504883,-5.750853538513184,0.9279524087905884,-0.0009094806155189872,-0.3726978600025177,-3.0872082710266113,1.51053786277771,0.33221644163131714,0.6852578540577374,-0.3142853207915864,0.4635469775295374,0.4655865214304859
1710359356635352000,2.49135205078125,-7.456100940704346,-3.162402868270874,-5.862429141998291,0.913311779499054,0.0831088200211525,-0.3986910879611969,-3.1186797618865967,1.5199339389801025,0.16434675455093384,0.6928856817806347,-0.34692445477914186,0.42461497619813576,0.46824674178998427
1710359356645371100,2.50137109375,-6.884895324707031,-3.1683332920074463,-5.986894130706787,0.8929632902145386,0.16591349244117737,-0.41843706369400024,-3.0356173515319824,1.380854845046997,0.005732715129852295,0.7002644766286257,-0.3764160312060527,0.3861249025824886,0.4678124392549959
1710359356655389200,2.51138916015625,-7.050065517425537,-3.1572482585906982,-6.2712016105651855,0.8667211532592773,0.24937859177589417,-0.4319778382778168,-2.9243078231811523,1.2920339107513428,-0.1653425693511963,0.7068007780298993,-0.4046637448817028,0.3467828331156093,0.4652114666138677
1710359356665408300,2.521408203125,-7.332720756530762,-3.0473458766937256,-6.556881904602051,0.8343336582183838,0.3355959951877594,-0.43733590841293335,-2.7403547763824463,1.34621262550354,-0.29528412222862244,0.7116522128859594,-0.43356751005345895,0.3055343896933121,0.4606724465962666
1710359356675427000,2.531427001953125,-7.1312174797058105,-2.8578555583953857,-6.918093681335449,0.7958958148956299,0.42224451899528503,-0.4338887631893158,-2.4813969135284424,1.1595274209976196,-0.4083504378795624,0.7149647964504728,-0.4623252754632811,0.2632697445839914,0.453618527419545
1710359356685444900,2.54144482421875,-6.71054220199585,-2.9247024059295654,-7.447409629821777,0.7500245571136475,0.5076335072517395,-0.4239945709705353,-2.2177369594573975,0.5566366314888,-0.4664624333381653,0.7180884948217549,-0.48937612536540237,0.22025832326065187,0.44310971387451326
1710359356695464000,2.5514638671875,-5.922094345092773,-2.9761440753936768,-8.014167785644531,0.6950932145118713,0.5902828574180603,-0.4103798568248749,-2.0711917877197266,0.06029093265533447,-0.3654836118221283,0.7219035280635876,-0.5135678016369996,0.17623333442272232,0.42900499424181493
1710359356705483000,2.56148291015625,-4.799123287200928,-2.9912109375,-8.456694602966309,0.6310568451881409,0.6666993498802185,-0.396584689617157,-2.0334768295288086,-0.10380244255065918,-0.3411318063735962,0.7275430709945878,-0.5330554281560327,0.13251253064670687,0.4110639359480027
1710359356715500800,2.571500732421875,-3.5393455028533936,-2.9121460914611816,-8.855428695678711,0.558593213558197,0.7347482442855835,-0.38486194610595703,-2.080810070037842,-0.18672871589660645,-0.33761101961135864,0.7352204349873613,-0.5472726054303353,0.08978712686351394,0.3897203590563374
1710359356725520000,2.581519775390625,-2.3840508460998535,-2.7336552143096924,-9.104920387268066,0.47894027829170227,0.7927115559577942,-0.3771269917488098,-2.215665102005005,-0.15764057636260986,-0.41605520248413086,0.7451193280929461,-0.5559159372962923,0.04892832836063809,0.3651859636898061
1710359356735537700,2.59153759765625,-1.2831213474273682,-2.652451515197754,-9.086801528930664,0.3941617012023926,0.8395375609397888,-0.37391647696495056,-2.4065518379211426,-0.09049862623214722,-0.4873504340648651,0.7564466353722457,-0.5594115117233364,0.010025816236315384,0.33874321876241353
1710359356745556700,2.601556640625,-0.5783589482307434,-2.2933528423309326,-8.776103973388672,0.30798837542533875,0.8743354082107544,-0.375074565410614,-2.4762165546417236,0.16767221689224243,-0.7597519159317017,0.7684409157278965,-0.5583807533769918,-0.025954792836031033,0.3115059292281217
1710359356755575800,2.611575927734375,-0.07122939079999924,-1.8620799779891968,-8.442347526550293,0.22359971702098846,0.8985923528671265,-0.3775379955768585,-2.46020245552063,0.48016130924224854,-0.9181771278381348,0.7798666137075784,-0.5547966195150523,-0.058580861720719475,0.2838609896127605
1710359356765593900,2.62159375,0.6970587968826294,-1.440590500831604,-8.089143753051758,0.1423719972372055,0.9125806093215942,-0.38331058621406555,-2.4318158626556396,0.7312793731689453,-0.9385886192321777,0.7912790846543056,-0.5483599655509243,-0.08744171379373453,0.255993881220405
1710359356775613000,2.631613037109375,1.6093770265579224,-1.4726868867874146,-7.8847174644470215,0.06370997428894043,0.9163514375686646,-0.39527374505996704,-2.234410047531128,0.8590698838233948,-0.8403370380401611,0.803352703640606,-0.5380433686967451,-0.11345688357181201,0.2286077422720789
1710359356785632000,2.641632080078125,2.2491936683654785,-1.9130786657333374,-7.732353210449219,-0.0146692655980587,0.910291850566864,-0.413707435131073,-1.9755040407180786,0.9750690460205078,-0.5440102219581604,0.815970472871813,-0.5233042141003924,-0.1389207637911991,0.20259842313473175
1710359356795649800,2.65164990234375,2.1578288078308105,-2.4547224044799805,-7.403006553649902,-0.09260505437850952,0.8966906070709229,-0.4328630268573761,-1.7629858255386353,1.1014174222946167,-0.1324901580810547,0.8273279972086838,-0.5061905616423301,-0.16534690780559835,0.17877377891585303
1710359356805668900,2.6616689453125,1.5589793920516968,-2.563974618911743,-6.778249263763428,-0.16717007756233215,0.8792113065719604,-0.4461408853530884,-1.7145285606384277,1.329498529434204,-0.007441699504852295,0.835688394932374,-0.4899081610258498,-0.19214461770674043,0.15714779032033785
1710359356815688000,2.67168798828125,1.2042127847671509,-2.4266278743743896,-5.906691074371338,-0.2336694896221161,0.8603582382202148,-0.4529707729816437,-1.7605931758880615,1.7079098224639893,-0.1730360984802246,0.8411155923141346,-0.4758820918128936,-0.21691205887844223,0.13787736922892313
1710359356825705700,2.681705810546875,0.9333016276359558,-2.608551025390625,-5.039818286895752,-0.2917420566082001,0.841063916683197,-0.4555196464061737,-1.6851255893707275,2.0724799633026123,-0.31103596091270447,0.8443398558051334,-0.46347141632290867,-0.2396548057301508,0.12186096102453525
1710359356835724800,2.691724853515625,0.5581943392753601,-2.959878444671631,-4.108567714691162,-0.3425349295139313,0.8230907917022705,-0.45298048853874207,-1.3752232789993286,2.2412707805633545,-0.26023030281066895,0.845237062773901,-0.4529195800966939,-0.261483464629865,0.10983859164618674
1710359356845743900,2.701743896484375,0.056587427854537964,-3.3211984634399414,-3.3701331615448,-0.38709935545921326,0.80815589427948,-0.44388994574546814,-1.051163673400879,2.218165636062622,-0.08624601364135742,0.8435787288173855,-0.4449220791866239,-0.2830183286698741,0.10158759110779364
1710359356855761700,2.71176171875,-0.1719008833169937,-3.2924375534057617,-2.7371573448181152,-0.4262833893299103,0.7961443066596985,-0.4294610321521759,-0.8934950828552246,2.0213911533355713,-0.010998934507369995,0.8399534632221427,-0.4391984309919004,-0.3039312815902278,0.09596217831216822
1710359356865780700,2.72178076171875,-0.9163321256637573,-3.227933645248413,-2.1250832080841064,-0.459036260843277,0.7879790663719177,-0.410334974527359,-0.8182922601699829,1.7835543155670166,-0.036655813455581665,0.8346756794842556,-0.4363683666424691,-0.32313335215745026,0.09210890967002167
1710359356875799000,2.731799072265625,-0.6843132972717285,-3.241115093231201,-1.7253155708312988,-0.4871581494808197,0.7820373177528381,-0.38870885968208313,-0.7969452142715454,1.7867341041564941,-0.34018799662590027,0.8284310817181021,-0.43503571499774235,-0.34115905601120544,0.08975742126079395
1710359356885817900,2.74181787109375,-0.8679468035697937,-3.3052499294281006,-1.3694981336593628,-0.5114468932151794,0.7773493528366089,-0.3662654459476471,-0.7019472718238831,1.7004644870758057,-0.4913393259048462,0.8216878840384706,-0.4341044042130084,-0.35835825970984037,0.08923010258803836
1710359356895837000,2.7518369140625,-1.1748734712600708,-3.124814033508301,-1.3433849811553955,-0.5333805084228516,0.7740141153335571,-0.3411852717399597,-0.5778255462646484,1.3385653495788574,-0.44375714659690857,0.8140503742528172,-0.43441780790252776,-0.37508469349704887,0.0889641012650095
1710359356905855000,2.76185498046875,-1.8399555683135986,-2.1274919509887695,-1.434935212135315,-0.5528441071510315,0.7714754343032837,-0.3149433434009552,-0.5545473098754883,1.1507658958435059,-0.14748930931091309,0.806242200772123,-0.43674345674218873,-0.3895939871300056,0.0862864953425903
1710359356915873800,2.771873779296875,-1.2449841499328613,-1.696797251701355,-1.7748026847839355,-0.5705627202987671,0.7678747177124023,-0.2912505269050598,-0.7336060404777527,1.0544064044952393,-0.3262419104576111,0.7994914372478034,-0.4399809571765498,-0.400988146021646,0.080242629247722
1710359356925892900,2.781892822265625,0.42604801058769226,-2.1892120838165283,-1.874592661857605,-0.5902190804481506,0.7577889561653137,-0.2782040238380432,-0.9206451773643494,1.1380393505096436,-1.4553773403167725,0.7957624832147824,-0.4364107153351201,-0.4128482409769513,0.07657829411587111
1710359356935911000,2.791910888671875,-0.18772883713245392,-2.3082082271575928,-1.4289298057556152,-0.609218955039978,0.7472788691520691,-0.2653806507587433,-0.476520299911499,1.0355734825134277,-1.5820159912109375,0.7918621442893767,-0.4314664869188355,-0.425612897568966,0.07513275363384035
1710359356945929700,2.8019296875,-0.11457020789384842,-1.8998196125030518,-0.8825844526290894,-0.6231082081794739,0.7407535314559937,-0.25103864073753357,0.06855809688568115,1.130645513534546,-0.7210985422134399,0.7873475528949251,-0.42891402482323204,-0.43647844844171063,0.07485444926832072
1710359356955948800,2.81194873046875,-0.6994602680206299,-1.5514962673187256,-0.9097135663032532,-0.6337082386016846,0.7361595630645752,-0.23766206204891205,0.010462939739227295,1.018998146057129,-0.6441890001296997,0.7831381243896935,-0.42774739820435576,-0.44519785757993274,0.07433658538266537
1710359356965966800,2.821966796875,-1.2768772840499878,-1.3241652250289917,-0.9591431617736816,-0.6440430283546448,0.7324227094650269,-0.22082969546318054,-0.23764032125473022,0.6867058277130127,-0.5821943879127502,0.7780246496735708,-0.4291199487852144,-0.4532562425601805,0.07136238759098304
1710359356975985700,2.831985595703125,-1.3910789489746094,-1.0691888332366943,-0.7928878664970398,-0.6529553532600403,0.7296115159988403,-0.20326481759548187,-0.3615100383758545,0.7986783981323242,-0.5746127963066101,0.7727065566603781,-0.43190547587241523,-0.46024477013136783,0.0675065949724633
1710359356986004700,2.842004638671875,-1.1714069843292236,-0.8404588103294373,-0.8917065858840942,-0.6607608795166016,0.7268588542938232,-0.1872745007276535,-0.1977139711380005,0.7853178977966309,-0.4710657000541687,0.7678715638223624,-0.4348510247151915,-0.4661194446866141,0.06333071864830904
1710359356996023000,2.85202294921875,-0.03853243216872215,-0.6213501691818237,-0.9446848630905151,-0.6688967943191528,0.7217957973480225,-0.17773061990737915,0.03133875131607056,0.5967162847518921,-0.48083847761154175,0.7650407840323159,-0.4348970876662024,-0.4711679238928111,0.059817091281864916
1710359357006041900,2.862041748046875,0.41733041405677795,-0.4387909471988678,-0.7712792158126831,-0.6760016083717346,0.7154580354690552,-0.17647038400173187,0.10546022653579712,0.17518234252929688,-0.9025394320487976,0.7647361450036433,-0.43149280717314326,-0.47495133171540155,0.05842885865076711
1710359357016060000,2.872059814453125,-0.45247262716293335,-0.423466295003891,-0.7347688674926758,-0.6820297837257385,0.7105172276496887,-0.17320741713047028,0.09239965677261353,-0.040915727615356445,-1.1088815927505493,0.7638266952537462,-0.42984391669060823,-0.478153215951137,0.056325786257657724
1710359357026079000,2.882078857421875,-0.6786370277404785,-0.3283897340297699,-0.6485764980316162,-0.6875892281532288,0.7067728638648987,-0.1664133220911026,0.09742504358291626,0.39871126413345337,-0.690016508102417,0.7618214506554134,-0.4302292703219688,-0.48134822727811255,0.053243225348642426
1710359357036097800,2.892097900390625,-0.3917624056339264,-0.17723165452480316,-0.5697181820869446,-0.6923599243164062,0.7034756541252136,-0.16049885749816895,0.12021636962890625,0.6911472082138062,-0.29781389236450195,0.7600995773772019,-0.4309409961654171,-0.4837772534909398,0.049981177557763934
1710359357046115800,2.90211572265625,-0.2163620889186859,-0.07617475837469101,-0.3819243013858795,-0.6958677172660828,0.7005800008773804,-0.15797404944896698,0.15613383054733276,0.5398375391960144,-0.2217559665441513,0.7594066189380033,-0.43069626361886904,-0.4852975388500889,0.047839519599205016
1710359357056135000,2.912135009765625,-0.2983812987804413,-0.0741046816110611,-0.2582566738128662,-0.6982383131980896,0.6987741589546204,-0.15549258887767792,0.16305160522460938,0.3861868977546692,-0.2835330367088318,0.7586951872706363,-0.43093937301293095,-0.48635888196503474,0.04612939473678087
1710359357066153700,2.92215380859375,-0.3671044409275055,0.0771939754486084,-0.07008783519268036,-0.6994003057479858,0.6981167793273926,-0.15320701897144318,0.18589621782302856,0.4414860010147095,0.014398038387298584,0.7580250346155774,-0.4317511306650508,-0.48681356667635434,0.04474040781998291
1710359357076171800,2.932171875,-0.4530521035194397,0.21907095611095428,0.06785192340612411,-0.6991163492202759,0.6988057494163513,-0.15135133266448975,0.18306398391723633,0.4568493366241455,0.02590899169445038,0.7574914015921014,-0.4334080706482709,-0.4862939207659517,0.04338936728596936
1710359357086190800,2.94219091796875,-0.28168702125549316,0.25765228271484375,0.1502501368522644,-0.6979808807373047,0.7001493573188782,-0.15037964284420013,0.20609843730926514,0.4592136740684509,0.0046126097440719604,0.7572291168908324,-0.43516843231618363,-0.48522017451096805,0.04235696942475006
1710359357096209700,2.952209716796875,-0.014509386382997036,0.2901449501514435,0.2545326054096222,-0.6961421370506287,0.7017855048179626,-0.15127305686473846,0.2405604124069214,0.4486510157585144,-0.12849664688110352,0.7575337291242942,-0.436265739167326,-0.48377234155672943,0.04218254463065224
1710359357106228000,2.96222802734375,0.04297574236989021,0.3481815755367279,0.35338062047958374,-0.6934905052185059,0.7038781046867371,-0.15371081233024597,0.2580808401107788,0.38033539056777954,-0.200674369931221,0.7583073839178567,-0.43695976802551306,-0.48188251004042126,0.04272664506194965
1710359357116247000,2.9722470703125,-0.043896302580833435,0.4091687798500061,0.37000221014022827,-0.690288782119751,0.7064393162727356,-0.15634937584400177,0.2288019061088562,0.28620606660842896,-0.22043567895889282,0.7591436530435435,-0.4379237038958723,-0.4796333403739237,0.04330943326382107
1710359357126265900,2.982265869140625,-0.19944381713867188,0.4820161461830139,0.3383808732032776,-0.6870697140693665,0.7090640068054199,-0.15863022208213806,0.15806269645690918,0.17876875400543213,-0.25450122356414795,0.7598886877579002,-0.4392985469832173,-0.47718097070414867,0.04340913760177781
1710359357136284000,2.992283935546875,-0.44401681423187256,0.5673536658287048,0.34769582748413086,-0.6838089823722839,0.7119173407554626,-0.15993423759937286,0.08433693647384644,0.08692610263824463,-0.22531943023204803,0.7603531643737877,-0.44145164529141506,-0.4745032402640803,0.04278054297680462
1710359357146303000,3.002302978515625,-0.5859180092811584,0.6304008364677429,0.3775258958339691,-0.6802310347557068,0.715255081653595,-0.1603001058101654,0.03576076030731201,0.06709367036819458,-0.17664426565170288,0.7605393525806745,-0.4444419972699486,-0.47150955271033596,0.04159386889148119
1710359357156321800,3.01232177734375,-0.6323057413101196,0.6485489010810852,0.38860490918159485,-0.676434338092804,0.7188524007797241,-0.1602746695280075,0.01220393180847168,0.08159327507019043,-0.1277194619178772,0.7606065485606907,-0.44780665157724464,-0.46832880155096607,0.04018872225851626
1710359357166339800,3.02233984375,-0.6355060935020447,0.627278745174408,0.4047742784023285,-0.6725438833236694,0.7225565910339355,-0.15999065339565277,0.0013402104377746582,0.09186619520187378,-0.08224242925643921,0.7605868931669856,-0.45129064467789093,-0.46512517140678294,0.03876920391292735
1710359357176359000,3.03235888671875,-0.5580565929412842,0.5997626781463623,0.4483204483985901,-0.6684536933898926,0.7263948917388916,-0.15975092351436615,-0.012149393558502197,0.11556994915008545,-0.06684184074401855,0.7605662989506088,-0.45469316916954383,-0.4619292840774917,0.037609968223368005
1710359357186377700,3.042377685546875,-0.4525599479675293,0.5826021432876587,0.512953519821167,-0.6640077233314514,0.7303994297981262,-0.1600327044725418,-0.034875333309173584,0.14035874605178833,-0.07466250658035278,0.7606922010062224,-0.45782142188797026,-0.45867548092105415,0.03692921975233276
1710359357196395800,3.052395751953125,-0.43100035190582275,0.5637248754501343,0.5972004532814026,-0.6589953899383545,0.7347933053970337,-0.1606360822916031,-0.05745053291320801,0.14153426885604858,-0.07651577889919281,0.7608998739592939,-0.46086433218410744,-0.4552867497364888,0.03673517176840367
1710359357206414800,3.062414794921875,-0.47572627663612366,0.541773796081543,0.6413878798484802,-0.6534892320632935,0.7396267652511597,-0.1609480232000351,-0.07871907949447632,0.12321209907531738,-0.06414937973022461,0.7609986362630123,-0.4641018850625835,-0.4518134899072172,0.03681270551522463
1710359357216433000,3.072432861328125,-0.5198351740837097,0.5253362059593201,0.6268733739852905,-0.6478819251060486,0.7445937991142273,-0.160714790225029,-0.09665542840957642,0.08206647634506226,-0.04656040668487549,0.7609185924301157,-0.46753867774997854,-0.44838620782755406,0.03688342825715109
1710359357226452000,3.082451904296875,-0.6053580641746521,0.5310173034667969,0.5626142621040344,-0.6425718069076538,0.7493402361869812,-0.15997225046157837,-0.11357760429382324,0.021793365478515625,-0.04295416176319122,0.7606852411034457,-0.4710902940979264,-0.4450705709536438,0.03666541678068984
1710359357236471000,3.092470947265625,-0.7016238570213318,0.5386936068534851,0.5024731755256653,-0.6377039551734924,0.7537835836410522,-0.15856972336769104,-0.12331295013427734,-0.02580183744430542,-0.039992690086364746,0.7602568889277771,-0.4748309704003053,-0.4418718009375325,0.03597935222520925
1710359357246488800,3.10248876953125,-0.7056097984313965,0.5455052852630615,0.49630820751190186,-0.6330777406692505,0.7580848932266235,-0.1565886288881302,-0.1299075484275818,-0.049024105072021484,-0.043102920055389404,0.7596502915713983,-0.4787476807326049,-0.4387554500031428,0.035011840669079926
1710359357256508000,3.1125078125,-0.6195343136787415,0.5554924011230469,0.46588557958602905,-0.628511369228363,0.7622083425521851,-0.15495845675468445,-0.12914860248565674,-0.04643368721008301,-0.04439741373062134,0.7591566794254019,-0.48246251299218584,-0.4356038267515413,0.03406660055142511
1710359357266527000,3.12252685546875,-0.5599120259284973,0.5484523773193359,0.3982791006565094,-0.6243872046470642,0.7657878398895264,-0.15398016571998596,-0.12475836277008057,-0.030100345611572266,-0.004344835877418518,0.7588783688560103,-0.48570041397730807,-0.4325563851720061,0.03307403008527742
1710359357276544800,3.132544677734375,-0.4745158553123474,0.5590856075286865,0.4851208031177521,-0.620168924331665,0.7692915201187134,-0.1535620391368866,-0.12415486574172974,-0.04181337356567383,0.052060842514038086,0.7587740819267482,-0.48865079455379556,-0.4294640599595161,0.032296529184050966
1710359357286563800,3.142563720703125,-0.5223729014396667,0.4976585805416107,0.5242010951042175,-0.6153837442398071,0.7732580900192261,-0.15288838744163513,-0.10524308681488037,-0.0850866436958313,0.06888903677463531,0.7585709694010918,-0.4917839102001731,-0.42626797789714044,0.0318486309562621
1710359357296583000,3.1525830078125,-0.3397468626499176,0.40141674876213074,0.4459872543811798,-0.6108856201171875,0.7769348621368408,-0.15228651463985443,-0.07194525003433228,-0.08151543140411377,0.04338479042053223,0.758380202209917,-0.4945526413443054,-0.42340810986451205,0.031668056460134215
1710359357306600700,3.1626005859375,-0.21456125378608704,0.3627057671546936,0.4104692041873932,-0.6070019602775574,0.7799313068389893,-0.15249943733215332,-0.0453265905380249,-0.08194833993911743,0.04565763473510742,0.7584458545804346,-0.49652693169021994,-0.42096470665270846,0.03177664614225951
1710359357316619800,3.172619873046875,-0.22153155505657196,0.3685556650161743,0.43245038390159607,-0.6031302213668823,0.7828171253204346,-0.15307319164276123,-0.036396145820617676,-0.0833236575126648,0.01702602207660675,0.7586242529422461,-0.4982738532340855,-0.41855294635085405,0.032029210517993886
1710359357326638800,3.182638916015625,-0.24775250256061554,0.3643164336681366,0.4113571047782898,-0.5992093682289124,0.7857605218887329,-0.15339036285877228,-0.037402570247650146,-0.059594690799713135,0.0030915290117263794,0.7587198982344014,-0.5001380698261549,-0.416133070906687,0.03223863655120626
1710359357336657000,3.192656982421875,-0.2058471292257309,0.36807575821876526,0.34421801567077637,-0.5956583023071289,0.7883789539337158,-0.15378551185131073,-0.04403597116470337,-0.07585442066192627,0.008216917514801025,0.7588479188691974,-0.501848266630634,-0.4138303506256745,0.03229091293887477
1710359357346676000,3.202676025390625,-0.27579638361930847,0.3926166892051697,0.3094102144241333,-0.5924969911575317,0.7906717658042908,-0.15422584116458893,-0.04207026958465576,-0.1466134786605835,0.05483032763004303,0.7590016089703574,-0.5034627489377059,-0.4115973072740514,0.03208683593706612
1710359357356695000,3.212695068359375,-0.3841755986213684,0.3760180175304413,0.298563152551651,-0.5894737243652344,0.7929975390434265,-0.15386967360973358,-0.0323372483253479,-0.18887144327163696,0.1005251407623291,0.7589057590491443,-0.5054274763566008,-0.40939984264107754,0.031575350677403885
1710359357366712800,3.222712890625,-0.36348655819892883,0.3313022553920746,0.27348044514656067,-0.5866373777389526,0.7952815890312195,-0.15291832387447357,-0.016206860542297363,-0.16617685556411743,0.13152575492858887,0.7586163661856673,-0.5075227908345564,-0.40738367063877984,0.030992141093332704
1710359357376732000,3.23273193359375,-0.269557923078537,0.3229109048843384,0.2425294667482376,-0.5840778350830078,0.7972843647003174,-0.1522861123085022,-0.0019360184669494629,-0.13476288318634033,0.1403997540473938,0.7584280214514194,-0.5093083343786864,-0.40553910584647784,0.03049883004017573
1710359357386749700,3.242749755859375,-0.180662140250206,0.31952807307243347,0.23542441427707672,-0.581671953201294,0.7990207076072693,-0.15239395201206207,0.00533217191696167,-0.10308247804641724,0.13257300853729248,0.7584784004160372,-0.5106897704907184,-0.40373132620332164,0.03012691423293629
1710359357396768800,3.252768798828125,-0.13979168236255646,0.2523897588253021,0.22711321711540222,-0.5793542265892029,0.8006240725517273,-0.15280741453170776,0.014382243156433105,-0.07534313201904297,0.10259097814559937,0.7586213217238386,-0.5118056826076162,-0.4020587506971254,0.02995909922488893
1710359357406787800,3.262787841796875,-0.13761906325817108,0.19207565486431122,0.2082175612449646,-0.5772627592086792,0.802100419998169,-0.1529800146818161,0.028175175189971924,-0.0650550127029419,0.08079087734222412,0.7586786540811787,-0.5128003210240085,-0.4006816956606627,0.02994786321387409
1710359357416805600,3.2728056640625,-0.14263007044792175,0.1725432425737381,0.18855543434619904,-0.5753815174102783,0.803460955619812,-0.1529279500246048,0.03866875171661377,-0.08017885684967041,0.08249358832836151,0.7586609548009926,-0.5137479543353226,-0.3994985181805254,0.02996248852755632
1710359357426824700,3.28282470703125,-0.1923675388097763,0.15677055716514587,0.13370656967163086,-0.5737928748130798,0.8046730756759644,-0.1525229811668396,0.03256356716156006,-0.1088874340057373,0.0678674578666687,0.7585324996678379,-0.514741534705614,-0.39847165533417794,0.02983488653919434
1710359357436843800,3.29284375,-0.21650855243206024,0.15256303548812866,0.04557778313755989,-0.5728170871734619,0.805513322353363,-0.1517530232667923,0.013246774673461914,-0.12437617778778076,0.0524643212556839,0.7582964244159528,-0.5157263825536116,-0.3976805099551939,0.029378309118017164
1710359357446861800,3.30286181640625,-0.2779437005519867,0.16638393700122833,-0.015391562134027481,-0.5724727511405945,0.8059554696083069,-0.15070103108882904,-0.004797756671905518,-0.11992025375366211,0.057851508259773254,0.7579819854633474,-0.5167006127757177,-0.3970767725344246,0.02852844311722169
1710359357456881000,3.312880859375,-0.34043368697166443,0.17068573832511902,-0.03278413414955139,-0.5724188685417175,0.8062784671783447,-0.14917010068893433,-0.016188859939575195,-0.09030550718307495,0.06478919088840485,0.7575195612384087,-0.5178553697005888,-0.39653596053973084,0.027371155250758852
1710359357466900000,3.32289990234375,-0.3669254779815674,0.15944857895374298,-0.022379163652658463,-0.572398841381073,0.8066480159759521,-0.14723654091358185,-0.014423668384552002,-0.05924195051193237,0.06831832230091095,0.7569251484814356,-0.5191752863798185,-0.39602872209578815,0.02612735303027876
1710359357476917800,3.332917724609375,-0.3585359752178192,0.12466104328632355,-0.011737704277038574,-0.5723062753677368,0.8071027398109436,-0.14508961141109467,-0.005711972713470459,-0.06055110692977905,0.06881117820739746,0.7562548730319261,-0.5205569229933651,-0.39557007659877724,0.024970665108587396
1710359357486936800,3.342936767578125,-0.303104430437088,0.07735195010900497,-0.009196516126394272,-0.5722309947013855,0.8075284957885742,-0.1430014818906784,-0.002826988697052002,-0.06592082977294922,0.05482114851474762,0.7555949717847503,-0.5218010148471016,-0.3952505028791247,0.024020286715371354
1710359357496956000,3.352955810546875,-0.2739356458187103,0.034587979316711426,-0.01009240373969078,-0.5722289681434631,0.8078826069831848,-0.1409955620765686,-0.0012573599815368652,-0.06540513038635254,0.0456589013338089,0.754954456057805,-0.5228748128739603,-0.39510017401888275,0.023271659693426056
1710359357506973700,3.3629736328125,-0.2592163383960724,0.0054994975216686726,-0.0019492561696097255,-0.5722290277481079,0.8082372546195984,-0.1389479786157608,0.0019165873527526855,-0.05161488056182861,0.040284886956214905,0.7542942624550162,-0.5238808619406231,-0.39506310436130987,0.022675585797853618
1710359357516992800,3.37299267578125,-0.22683151066303253,-0.0001392131671309471,-0.0024155755527317524,-0.5722357630729675,0.808567464351654,-0.13698576390743256,0.0028998255729675293,-0.030094444751739502,0.03046441078186035,0.7536581821059842,-0.5247961822909113,-0.3950899744684627,0.022189374282642105
1710359357527011800,3.38301171875,-0.24109965562820435,0.014080096036195755,-0.019912809133529663,-0.5722978115081787,0.8088279366493225,-0.13517631590366364,-0.002500772476196289,-0.028432369232177734,0.024580910801887512,0.7530722514725071,-0.5256400889301098,-0.3951130667183187,0.021687444809770966
1710359357537029600,3.393029541015625,-0.34333279728889465,0.040429677814245224,-0.046040818095207214,-0.5725288391113281,0.8090274930000305,-0.1329863965511322,-0.017833709716796875,-0.04251742362976074,0.00917680561542511,0.7523667335027686,-0.5266693289635009,-0.3951281074118704,0.020917940627013624
1710359357547048700,3.403048583984375,-0.39200153946876526,0.04353652149438858,-0.051212675869464874,-0.5728642344474792,0.8092447519302368,-0.13019192218780518,-0.026455342769622803,-0.050257086753845215,-0.011058464646339417,0.7514659273789497,-0.5279917842258538,-0.3951312625601004,0.019878277120040266
1710359357557067800,3.41306787109375,-0.4159604012966156,0.044828955084085464,-0.04744004085659981,-0.5731983780860901,0.8094813823699951,-0.12721602618694305,-0.014860212802886963,-0.06341791152954102,-0.020443037152290344,0.7505030539158175,-0.5293951528100612,-0.39513638060639117,0.018798587896738845
1710359357567085800,3.4230859375,-0.5552005767822266,0.05915239080786705,-0.03174257278442383,-0.5734478831291199,0.8098634481430054,-0.12360875308513641,0.0011669397354125977,-0.08584892749786377,-0.025835588574409485,0.7493305953462807,-0.5311341143325631,-0.3950850244076064,0.017557418609533252
1710359357577105000,3.43310498046875,-0.657893180847168,0.04758255556225777,-0.048572950065135956,-0.5736773610115051,0.8104009628295898,-0.11893237382173538,0.004936397075653076,-0.08124423027038574,-0.03528799116611481,0.7478022608597962,-0.5333675320890269,-0.3950353030503863,0.016067011612655755
1710359357587124000,3.4431240234375,-0.6272252202033997,0.0450618714094162,-0.08470086753368378,-0.5741490125656128,0.8107887506484985,-0.11390584707260132,0.005423486232757568,-0.07642894983291626,-0.029709629714488983,0.746153654320136,-0.5356817699656827,-0.39508495055792076,0.014410717704073855
1710359357597141800,3.453141845703125,-0.5352694988250732,0.06167147308588028,-0.12242720276117325,-0.5749204754829407,0.8108507990837097,-0.10948719084262848,0.006530582904815674,-0.07501095533370972,0.0022028833627700806,0.7447020049100875,-0.5376474077887198,-0.3952109163056323,0.012748339533284782
1710359357607160800,3.463160888671875,-0.4745810925960541,0.07550489157438278,-0.14356471598148346,-0.575920045375824,0.8106333017349243,-0.1057826578617096,-0.00016033649444580078,-0.04598480463027954,0.013436675071716309,0.7434844424355557,-0.5392763810389608,-0.3953348670802131,0.011061669304188542
1710359357617179000,3.473178955078125,-0.3839063346385956,0.06054272502660751,-0.141450434923172,-0.5769841074943542,0.8102748990058899,-0.10268601030111313,-0.005169332027435303,-0.004290163516998291,0.010218009352684021,0.7424642193626303,-0.5406085751224372,-0.3954735928909716,0.009494767983504297
1710359357627197700,3.48319775390625,-0.2698034644126892,0.0653131902217865,-0.150566965341568,-0.5780869722366333,0.8097765445709229,-0.10038701444864273,0.0006028413772583008,-0.003746211528778076,-0.0022281333804130554,0.7417055786823874,-0.5415409401657099,-0.39565123941853747,0.008149435229056798
1710359357637216800,3.493216796875,-0.2600456178188324,0.08492497354745865,-0.16577307879924774,-0.5792793035507202,0.8091235160827637,-0.09876631945371628,0.008234381675720215,-0.037806928157806396,-0.0061376020312309265,0.7411721267573748,-0.5421748615434855,-0.3958070969617666,0.006864102276447463
1710359357647234800,3.50323486328125,-0.3671148419380188,0.08786845952272415,-0.1770491749048233,-0.5805714130401611,0.8084431886672974,-0.09673061966896057,-0.0003154873847961426,-0.06201362609863281,-0.0037482380867004395,0.7404975453804526,-0.5430047341334042,-0.3959552354967482,0.0053741219640414915
1710359357657253600,3.513253662109375,-0.43376630544662476,0.08360500633716583,-0.20312391221523285,-0.5820132493972778,0.8077315092086792,-0.0939701646566391,-0.008959650993347168,-0.0454176664352417,0.008155003190040588,0.7395754069364118,-0.5441246448224195,-0.39616068473788785,0.003646381197862878
1710359357667272700,3.523272705078125,-0.501666247844696,0.10022734105587006,-0.22558581829071045,-0.5836721062660217,0.8069073557853699,-0.0907067209482193,-0.010093212127685547,-0.028007090091705322,0.027688145637512207,0.738478678742211,-0.5454342115327218,-0.39641917259451204,0.0016703053468039716
1710359357677291500,3.53329150390625,-0.483512282371521,0.1007533147931099,-0.1984548568725586,-0.5852958559989929,0.8061105608940125,-0.08726246654987335,-0.016770243644714355,-0.0001869797706604004,0.030072808265686035,0.7373135031148307,-0.5468646282493236,-0.39662053003369957,-0.0003917740026367631
1710359357687310300,3.543310302734375,-0.3812764585018158,0.07465001940727234,-0.1654636263847351,-0.5866807699203491,0.8054206371307373,-0.08428215235471725,-0.014301896095275879,0.04646235704421997,0.01998186856508255,0.7362991933781481,-0.5481031514487168,-0.3967894416193892,-0.002161352223017832
1710359357697329400,3.553329345703125,-0.2989184558391571,0.057422563433647156,-0.128618523478508,-0.5878053903579712,0.8048405647277832,-0.0819559395313263,0.000357210636138916,0.07070887088775635,0.011552095413208008,0.7355035775789254,-0.5490529584068297,-0.3969419096039998,-0.003552485872513986
1710359357707347500,3.563347412109375,-0.3232448399066925,0.05333429202437401,-0.08827322721481323,-0.5886210799217224,0.8044573068618774,-0.07983611524105072,0.010373950004577637,0.07602065801620483,0.00955432653427124,0.7347762288363808,-0.5499530010510201,-0.3970310325084535,-0.004694161481578964
1710359357717366500,3.573366455078125,-0.3744103014469147,0.05372551083564758,-0.057535018771886826,-0.5891416072845459,0.8043226003646851,-0.07731368392705917,0.010116338729858398,0.06564199924468994,-0.004061155021190643,0.7339095684111823,-0.5511091262483475,-0.39701623411162296,-0.005800646731852402
1710359357727385300,3.58338525390625,-0.4191836416721344,0.05115651711821556,-0.0627303197979927,-0.5895559787750244,0.8042891621589661,-0.07445082813501358,0.011415660381317139,0.040895283222198486,-0.016155600547790527,0.7329238664435374,-0.5524430242296481,-0.3969650988885996,-0.006937900374074752
1710359357737403400,3.5934033203125,-0.5000017881393433,0.05475098639726639,-0.08159562200307846,-0.5900841355323792,0.8042097687721252,-0.0710466206073761,0.014965057373046875,0.008717536926269531,-0.023542404174804688,0.7317480006511433,-0.5539971206909455,-0.39694317134091966,-0.008266653922975932
1710359357747422500,3.60342236328125,-0.5236133337020874,0.06973275542259216,-0.09827020019292831,-0.5907602310180664,0.8040377497673035,-0.06727580726146698,0.01677030324935913,0.010934293270111084,-0.012237548828125,0.7304397934763207,-0.5556976592955915,-0.39694106337352036,-0.00978689935137857
1710359357757441300,3.613441162109375,-0.5227022767066956,0.08518335223197937,-0.10201780498027802,-0.5915017127990723,0.8037987351417542,-0.06350930780172348,0.017374515533447266,0.02522653341293335,0.005541391670703888,0.7291258650140979,-0.55741853642584,-0.396900392022316,-0.011410646729930833
1710359357767459300,3.623459228515625,-0.46103015542030334,0.08133205026388168,-0.1035752221941948,-0.5922768712043762,0.8034974932670593,-0.05999819189310074,0.01850062608718872,0.0361173152923584,0.003968186676502228,0.7278941562933576,-0.5590236704210908,-0.3968544324417516,-0.013005543883376674
1710359357777478400,3.633478515625,-0.34035778045654297,0.08380931615829468,-0.09440542012453079,-0.5930138230323792,0.8031556010246277,-0.05723661929368973,0.020885467529296875,0.056295812129974365,0.003983676433563232,0.7269191517565049,-0.5602928484141402,-0.3968042523043998,-0.014389463505248388
1710359357787497200,3.643497314453125,-0.2395656704902649,0.08671940863132477,-0.08260761946439743,-0.5936577916145325,0.802804708480835,-0.05545742064714432,0.020461201667785645,0.07709360122680664,0.006888918578624725,0.7262839866356673,-0.5611506408220477,-0.39671305594119927,-0.015508389426855443
1710359357797515500,3.653515625,-0.21614690124988556,0.09389210492372513,-0.059409353882074356,-0.5941705107688904,0.8025121092796326,-0.05418761447072029,0.01549607515335083,0.09618502855300903,0.0015450641512870789,0.7258257290839858,-0.5618230329497289,-0.39656156187322705,-0.016465447342250524
1710359357807534300,3.663534423828125,-0.2237693965435028,0.0897912085056305,-0.031003810465335846,-0.5944768190383911,0.8023655414581299,-0.05298216640949249,0.011056959629058838,0.09547698497772217,-0.0004233121871948242,0.7253904691887431,-0.5625194062755797,-0.39633424467809947,-0.017317316798923652
1710359357817553400,3.673553466796875,-0.2843320965766907,0.09797084331512451,0.005503599997609854,-0.5945252776145935,0.8024240732192993,-0.05153235048055649,0.01275336742401123,0.06651824712753296,-0.0024987459182739258,0.7248710159325545,-0.5633938399754894,-0.396006571911358,-0.018120443831457025
1710359357827571500,3.683571533203125,-0.3624446988105774,0.12140586227178574,0.05134991928935051,-0.5942204594612122,0.802773118019104,-0.049574386328458786,0.013547182083129883,0.03424787521362305,-0.016312837600708008,0.7241738342918024,-0.5646243842785642,-0.39548971037140856,-0.01896294312328344
1710359357837590500,3.693590576171875,-0.4187636375427246,0.12862062454223633,0.058476004749536514,-0.593685507774353,0.8033134341239929,-0.04717092961072922,0.010265707969665527,0.00499039888381958,-0.024407796561717987,0.7233189262566287,-0.566148428065447,-0.3948296998424842,-0.019879877398694415
1710359357847609300,3.703609375,-0.45780453085899353,0.13128960132598877,0.05235286429524422,-0.5931796431541443,0.8038448691368103,-0.04440242424607277,0.004892230033874512,-0.020839989185333252,-0.020737111568450928,0.7223321981863053,-0.5678371587019583,-0.39415701178676804,-0.020917128331275573
1710359357857627400,3.71362744140625,-0.47159436345100403,0.12346629798412323,0.0607314370572567,-0.5926656723022461,0.8043839335441589,-0.04139997810125351,0.004454612731933594,-0.02217257022857666,0.01129460334777832,0.7212601873608844,-0.5696234837531914,-0.393483286590462,-0.021995267773670276
1710359357867646500,3.723646484375,-0.44816842675209045,0.12031246721744537,0.07472314685583115,-0.5920647382736206,0.8049754500389099,-0.03839240223169327,0.0053032636642456055,0.0007497072219848633,0.03297579661011696,0.7201850855926871,-0.5714193685952645,-0.39278964414905465,-0.02301481681710492
1710359357877664300,3.733664306640625,-0.36853137612342834,0.09119054675102234,0.07318517565727234,-0.5913938879966736,0.8055922985076904,-0.035701751708984375,0.0014127492904663086,0.023967087268829346,0.03873848915100098,0.7192234031588973,-0.5730454642529672,-0.39213265657944657,-0.02384793787034962
1710359357887683300,3.743683349609375,-0.2100389301776886,0.07112489640712738,0.0714314803481102,-0.59078049659729,0.806123673915863,-0.03380819037556648,-0.008035361766815186,0.030012190341949463,0.02364606410264969,0.7185464504128329,-0.574235175946804,-0.39159911678689324,-0.02439435810345542
1710359357897702400,3.753702392578125,-0.14085426926612854,0.07993356883525848,0.08553451299667358,-0.590112566947937,0.8066493272781372,-0.03292807191610336,-0.01686680316925049,0.014136254787445068,0.014633063226938248,0.7182319307213466,-0.5749679286955852,-0.39108547075091543,-0.024638278348122086
1710359357907720400,3.763720458984375,-0.20475231111049652,0.1045871451497078,0.08587194234132767,-0.5893707871437073,0.8072241544723511,-0.03212065249681473,-0.026901304721832275,-0.0018955469131469727,0.01976132020354271,0.7179412494434471,-0.5757323706644537,-0.3904765185531762,-0.024918139782978882
1710359357917739300,3.7737392578125,-0.27946168184280396,0.11275719106197357,0.07099924981594086,-0.5886964201927185,0.8077672719955444,-0.03080257587134838,-0.044543325901031494,0.002520263195037842,0.02331078238785267,0.7174642333934688,-0.5767467777057937,-0.38982286550362294,-0.02542579924088478
1710359357927758300,3.78375830078125,-0.34567078948020935,0.1191830262541771,0.06491073220968246,-0.5881049633026123,0.808266818523407,-0.028939925134181976,-0.055251359939575195,-0.017174839973449707,0.024118365719914436,0.7167896733186591,-0.577995325893266,-0.3891676253194709,-0.02612675250361094
1710359357937776400,3.7937763671875,-0.38932400941848755,0.12737543880939484,0.062453966587781906,-0.5875401496887207,0.8087554574012756,-0.026677297428250313,-0.05441248416900635,-0.04108554124832153,0.00851958617568016,0.7159688533113666,-0.5794328239685645,-0.38848288793839286,-0.026971924241330873
1710359357947795500,3.80379541015625,-0.39162471890449524,0.11011335998773575,0.06923224031925201,-0.5869728326797485,0.8092449307441711,-0.02420826256275177,-0.044344425201416016,-0.03513580560684204,-0.005912367254495621,0.715072415637213,-0.5809540085894882,-0.38779931546497964,-0.02785390414926538
1710359357957814500,3.813814453125,-0.3919173777103424,0.08137679100036621,0.08113257586956024,-0.5863344073295593,0.8097808361053467,-0.02161002904176712,-0.0319364070892334,-0.03413081169128418,-0.016246793791651726,0.714133274165325,-0.5824810336301778,-0.38718320085718666,-0.02861347987044218
1710359357967832300,3.823832275390625,-0.40217775106430054,0.06947486102581024,0.10870029032230377,-0.585541307926178,0.8104239702224731,-0.018828988075256348,-0.024642467498779297,-0.03658968210220337,-0.01670849323272705,0.7131328558868917,-0.5840749130495149,-0.38657729073944835,-0.029259404036515765
1710359357977851400,3.833851318359375,-0.42115357518196106,0.06992360204458237,0.14464230835437775,-0.584495484828949,0.811241090297699,-0.015905750915408134,-0.030067503452301025,-0.031669557094573975,-0.02388894371688366,0.7120846273811287,-0.5857763691021638,-0.385892692727993,-0.029805714418770533
1710359357987870500,3.843870361328125,-0.48203396797180176,0.07369543612003326,0.18001921474933624,-0.5831593871116638,0.8122588396072388,-0.012681281194090843,-0.04103195667266846,-0.034243643283843994,-0.023451268672943115,0.7109311087998518,-0.5876732639456408,-0.3850967334908032,-0.03029310470879857
1710359357997888300,3.85388818359375,-0.6630809903144836,0.09598209708929062,0.24462643265724182,-0.5814406871795654,0.8135440349578857,-0.008549450896680355,-0.053767502307891846,-0.05948507785797119,-0.01934337615966797,0.709451105521578,-0.5900831619809759,-0.3840926142762364,-0.030886159455519976
1710359358007907300,3.8639072265625,-0.8744683265686035,0.0839579775929451,0.3108619153499603,-0.5791438221931458,0.8152206540107727,-0.002822096459567547,-0.06518906354904175,-0.08826130628585815,-0.01660209894180298,0.7073965108668572,-0.5933361227825328,-0.38280699721063666,-0.03164410637609192
1710359358017926400,3.873926513671875,-1.0664550065994263,0.06388946622610092,0.3581995964050293,-0.5763933062553406,0.8171591758728027,0.0046916319988667965,-0.0805433988571167,-0.12508141994476318,-0.036841630935668945,0.7046958402592763,-0.597400548797527,-0.38139008953239434,-0.032528654781403175
1710359358027944400,3.8839443359375,-1.2361607551574707,0.06076882407069206,0.40832242369651794,-0.5732414722442627,0.819270133972168,0.013815431855618954,-0.0957190990447998,-0.1747846007347107,-0.05852341651916504,0.7014032383271663,-0.6021926853417585,-0.37983112793646395,-0.03355395371153221
1710359358037963300,3.89396337890625,-1.3612236976623535,0.08792267739772797,0.4518299400806427,-0.569706916809082,0.8214946985244751,0.0240913238376379,-0.1194409728050232,-0.20833557844161987,-0.10455072671175003,0.6976734868992069,-0.6075562148745782,-0.37804908159177897,-0.03472703907220392
1710359358047982300,3.903982421875,-1.5252772569656372,0.13219262659549713,0.49807628989219666,-0.5658175945281982,0.8237735629081726,0.03532448783516884,-0.14695101976394653,-0.23763763904571533,-0.1810457706451416,0.6935656272698478,-0.6134475868341907,-0.37595784717068786,-0.03611939689277064
1710359358058000400,3.91400048828125,-1.7871060371398926,0.19690291583538055,0.5792520642280579,-0.5614302754402161,0.826126754283905,0.048069264739751816,-0.15716713666915894,-0.27442997694015503,-0.21332168579101562,0.6888632519654405,-0.620150129644526,-0.3734279704779359,-0.03785266779405152
1710359358068019500,3.92401953125,-2.1133360862731934,0.31801292300224304,0.6583722233772278,-0.5564339756965637,0.8285175561904907,0.06277082860469818,-0.16700053215026855,-0.32540470361709595,-0.22854208946228027,0.6833767941183978,-0.6279386105167388,-0.3702411590804408,-0.040135719368012995
1710359358078038500,3.93403857421875,-2.5646812915802,0.437380313873291,0.7166461944580078,-0.5509257316589355,0.8307070732116699,0.08004284650087357,-0.20179039239883423,-0.38565391302108765,-0.25777697563171387,0.6768350979839215,-0.6370886816450689,-0.36625050884268223,-0.043277585313262944
1710359358088056300,3.944056396484375,-2.9059958457946777,0.4511506259441376,0.7385829091072083,-0.5453017354011536,0.8321942090988159,0.10049517452716827,-0.256578266620636,-0.4286753535270691,-0.33737242221832275,0.6689655344928428,-0.6475833412265609,-0.3617781133704294,-0.04730476169531979
1710359358098075400,3.954075439453125,-3.368622064590454,0.47479552030563354,0.8857755064964294,-0.5390428900718689,0.8331135511398315,0.12391408532857895,-0.2970929741859436,-0.48651015758514404,-0.3976411819458008,0.6598270638978474,-0.6592627378255356,-0.3568328558043151,-0.05168420557773998
1710359358108094500,3.964094482421875,-3.963923454284668,0.4873608350753784,0.9202067255973816,-0.5320589542388916,0.8329343795776367,0.15209899842739105,-0.33035266399383545,-0.5619228482246399,-0.3452291488647461,0.6486271516178823,-0.6728600982812529,-0.35115350679131746,-0.05686438432960806
1710359358118112300,3.9741123046875,-3.8910961151123047,0.46095770597457886,0.8237446546554565,-0.5255880951881409,0.8309109210968018,0.18260455131530762,-0.3488931655883789,-0.469063937664032,-0.14146661758422852,0.6362236752443782,-0.6869877217537176,-0.34547090069074377,-0.06258815291526762
1710359358128131300,3.98413134765625,-3.8712728023529053,0.5973702669143677,0.8423050045967102,-0.5197451114654541,0.8276329636573792,0.21186961233615875,-0.3762204647064209,-0.4569055438041687,-0.060883551836013794,0.6240113329105955,-0.7003786449087214,-0.3397124627440761,-0.0683746383867992
1710359358138150400,3.994150390625,-4.239516735076904,0.7166793346405029,0.9695737361907959,-0.513810932636261,0.8231154084205627,0.24182525277137756,-0.4172345995903015,-0.5364028215408325,-0.07448185980319977,0.6111425220685562,-0.7141680813470197,-0.33298134970121385,-0.07478127139631317
1710359358148168400,4.00416845703125,-4.550764560699463,0.6949941515922546,1.0016124248504639,-0.5074378252029419,0.8168074488639832,0.27446824312210083,-0.4572076201438904,-0.47848957777023315,-0.07184648513793945,0.5967468492090321,-0.7288944622172819,-0.3254949874290218,-0.08160413439717218
1710359358158187300,4.014187255859375,-4.669989585876465,0.6511662006378174,1.033440113067627,-0.5011897087097168,0.8084726333618164,0.30851447582244873,-0.481262743473053,-0.4225015640258789,-0.03161299228668213,0.5812971096790849,-0.7438045934316739,-0.3178237919422139,-0.08852432563651629
1710359358168206300,4.024206298828125,-4.8905158042907715,0.690255343914032,1.0304882526397705,-0.49509456753730774,0.7980080246925354,0.3436061143875122,-0.5073469877243042,-0.42004770040512085,0.05498436093330383,0.5648380659888768,-0.7588687779361499,-0.3097115374276097,-0.09568243601122237
1710359358178224400,4.034224365234375,-4.964048385620117,0.5974375009536743,1.016763687133789,-0.4893454313278198,0.7851760387420654,0.3795264661312103,-0.5665018558502197,-0.3446241617202759,0.09654814004898071,0.5474079653142517,-0.7738420887481557,-0.30154875897163946,-0.10286662000898682
1710359358188243500,4.044243408203125,-5.03157901763916,0.5672801733016968,1.104644775390625,-0.48349300026893616,0.770421028137207,0.4155557155609131,-0.6004610061645508,-0.316182017326355,0.11757153272628784,0.5293186975286827,-0.7885424016855866,-0.2932213131552412,-0.10974549102731529
1710359358198262500,4.054262451171875,-5.386862754821777,0.5231438875198364,1.2262910604476929,-0.4769701659679413,0.7534416913986206,0.4525763988494873,-0.5748792886734009,-0.4049767255783081,0.18643152713775635,0.5100561993137647,-0.8034514397654886,-0.28417245328418084,-0.11642416420602507
1710359358208280300,4.0642802734375,-5.608063697814941,0.4373650550842285,1.2551944255828857,-0.47002437710762024,0.7332103252410889,0.4914064407348633,-0.5292738080024719,-0.39380908012390137,0.24914872646331787,0.48904692683597817,-0.818706794594466,-0.2746313873621832,-0.12300441592984898
