time,seconds_elapsed,rotationRateX,rotationRateY,rotationRateZ,gravityX,gravityY,gravityZ,accelerationX,accelerationY,accelerationZ,quaternionW,quaternionX,quaternionY,quaternionZ
1709730861207029200,0.045029296875,-0.4175657331943512,0.04222876578569412,-0.20333530008792877,-0.42507219314575195,-0.27624526619911194,-0.8619757294654846,-0.015037000179290771,-0.013335973024368286,0.002387106418609619,0.9648770568139711,0.14315050043266192,-0.22027271528534895,-3.9885855043918944e-17
1709730861217048300,0.05504833984375,-0.5699869990348816,0.03774362802505493,-0.21882185339927673,-0.4241366386413574,-0.27295607328414917,-0.8634831309318542,-0.012112081050872803,-0.04691389203071594,0.017139077186584473,0.965266337608102,0.14103831081927354,-0.21992417359798416,-0.0015391731114004518
1709730861227067400,0.0650673828125,-0.6529132723808289,0.032713182270526886,-0.23643626272678375,-0.4232170879840851,-0.26856493949890137,-0.8653092980384827,-0.006470382213592529,-0.06450387835502625,0.03195047378540039,0.9657348301142358,0.1382971566297306,-0.2195888175244133,-0.0032974730034165674
1709730861237087500,0.07508740234375,-0.6183363795280457,0.028212815523147583,-0.2742305099964142,-0.42227596044540405,-0.2640667259693146,-0.8671515583992004,0.000004291534423828125,-0.05308714509010315,0.03869086503982544,0.9662032601533943,0.13546971648861544,-0.2192536905292971,-0.005208957103532195
1709730861247106600,0.0851064453125,-0.493487685918808,0.014022160321474075,-0.33052656054496765,-0.4212975800037384,-0.2604546546936035,-0.8687183856964111,-0.0008672773838043213,0.010378390550613403,0.04472851753234863,0.9665951339805715,0.1330807398363384,-0.2189299219111243,-0.0072723248357118644
1709730861257059600,0.0950595703125,-0.2797442376613617,0.037464689463377,-0.37383195757865906,-0.4201919436454773,-0.2585432827472687,-0.869824230670929,-0.01118934154510498,0.10658097267150879,0.045239269733428955,0.9669086392270436,0.13369582181339404,-0.21728627073520998,5.506243552744986e-18
1709730861267079700,0.10507958984375,-0.08194541186094284,0.09801884740591049,-0.392518550157547,-0.4186108708381653,-0.2586335837841034,-0.8705593943595886,-0.030989408493041992,0.15911570191383362,0.025436103343963623,0.9670965123500407,0.13326619077661972,-0.2167035706556805,-0.0020097437208982083
1709730861277098800,0.1150986328125,0.009599152952432632,0.17462067306041718,-0.37958624958992004,-0.416422963142395,-0.26001080870628357,-0.8711982369422913,-0.051625192165374756,0.15260416269302368,0.01620250940322876,0.9672562281438486,0.13355224700651908,-0.2157885225826248,-0.003828561348093701
1709730861287117800,0.125117919921875,-0.032381054013967514,0.22712330520153046,-0.35268378257751465,-0.4136914908885956,-0.26151764392852783,-0.8720481395721436,-0.057591527700424194,0.10006436705589294,0.021034955978393555,0.9674679746756873,0.1339425653290449,-0.21455845948737254,-0.005470179781282627
1709730861297137700,0.1351376953125,-0.2291593700647354,0.23056496679782867,-0.340219110250473,-0.410744845867157,-0.26187124848365784,-0.8733339309692383,-0.03792464733123779,0.02273544669151306,0.02427387237548828,0.9677893717106812,0.13372476675609937,-0.21319175990200784,-0.007121350287363843
1709730861307156500,0.145156494140625,-0.49251750111579895,0.17635765671730042,-0.3276439309120178,-0.4080639183521271,-0.26008275151252747,-0.8751233220100403,0.0030040442943573,-0.03479337692260742,0.030457794666290283,0.9682359365302445,0.13233983495042864,-0.21195404221563305,-0.008988708885102552
1709730861317175600,0.155175537109375,-0.6876164078712463,0.08064299821853638,-0.3168219327926636,-0.4060823321342468,-0.25614771246910095,-0.8772032260894775,0.04862990975379944,-0.06819310784339905,0.034597694873809814,0.968751067015801,0.12978770200855744,-0.2110770829057742,-0.011094917468287568
1709730861327195600,0.165195556640625,-0.6875197291374207,-0.02614203467965126,-0.30756422877311707,-0.4050445556640625,-0.25126978754997253,-0.8790917992591858,0.08221429586410522,-0.07656532526016235,0.018313050270080566,0.9692099442868571,0.1267251803900305,-0.21070078689478633,-0.013344011215176659
1709730861337214700,0.175214599609375,-0.5516127943992615,-0.0698767900466919,-0.30830273032188416,-0.40476667881011963,-0.24694950878620148,-0.8804429769515991,0.08207374811172485,-0.02368040382862091,-0.0043073296546936035,0.9695263157447401,0.12398733048042564,-0.21072647177752077,-0.01549771148184645
1709730864272879400,3.11087939453125,-1.7080941200256348,-0.2550557851791382,-1.862399935722351,0.7305391430854797,-0.6519941091537476,0.20301824808120728,-0.5942934155464172,-0.08148062229156494,0.26431286334991455,0.629506183366866,0.5581054926336215,0.538541903291916,-0.0470414733538906
1709730864282899500,3.1208994140625,-1.7411975860595703,-0.3166216313838959,-2.127800464630127,0.7440147995948792,-0.6406626105308533,0.18972080945968628,-0.6973227858543396,-0.13875651359558105,0.33266404271125793,0.6345805063760901,0.5471683038802805,0.5435689968756418,-0.04947126743085708
1709730864292918500,3.13091845703125,-1.8321375846862793,-0.38191354274749756,-2.4046621322631836,0.7590317726135254,-0.6268637180328369,0.17582084238529205,-0.7939285635948181,-0.15841472148895264,0.4094606637954712,0.6397696852678516,0.5352001891136416,0.5490639090278879,-0.052767999437848774
1709730864302937600,3.1409375,-1.923917531967163,-0.49427229166030884,-2.7307801246643066,0.7756761908531189,-0.6103067398071289,0.1607864797115326,-0.8606523275375366,-0.1748342514038086,0.45382237434387207,0.6452605228916866,0.5219145643172314,0.5549760634014357,-0.056970897490826025
1709730864312957400,3.15095751953125,-2.021495819091797,-0.6812230348587036,-3.018097400665283,0.7938620448112488,-0.5907012224197388,0.14441338181495667,-0.9055563807487488,-0.17129218578338623,0.4877126216888428,0.6510837068936165,0.507332259808769,0.5610888239245898,-0.062316622812102325
1709730864322976300,3.160976318359375,-2.151991605758667,-0.9153554439544678,-3.351738929748535,0.8134317398071289,-0.5678907632827759,0.12581464648246765,-0.9397286176681519,-0.1182970404624939,0.5660190582275391,0.6575364713250503,0.49120421039787837,0.5671205780101971,-0.06883774885489183
1709730864332995300,3.170995361328125,-2.2819652557373047,-1.1635823249816895,-3.6332736015319824,0.8340610265731812,-0.5415975451469421,0.10494983941316605,-0.9699862599372864,-0.03986918926239014,0.6343996524810791,0.664571062930655,0.4735319178387115,0.5729244646480524,-0.07661889862549795
1709730864343015400,3.181015380859375,-2.3995141983032227,-1.3728222846984863,-3.9017603397369385,0.8551403284072876,-0.5119088888168335,0.0817587748169899,-1.0058817863464355,0.002677321434020996,0.6278208494186401,0.6721801035883889,0.45427186236644573,0.5783739806087473,-0.08540850457574337
1709730864353034500,3.191034423828125,-2.5504133701324463,-1.60231351852417,-4.1150031089782715,0.8760918974876404,-0.47880274057388306,0.05666830763220787,-1.0536277294158936,0.008465707302093506,0.6418029069900513,0.680155737710498,0.4335946399791135,0.5833779574401667,-0.09515360537018018
1709730864363053300,3.20105322265625,-2.7993667125701904,-1.7872943878173828,-4.357215881347656,0.8963404297828674,-0.4424038827419281,0.02920566312968731,-1.118264079093933,0.01288411021232605,0.6814115047454834,0.6886897386645077,0.4111378627588549,0.5878507371144741,-0.10537451999133465
1709730864373073400,3.211073486328125,-3.06497859954834,-1.9749633073806763,-4.600424289703369,0.9155938625335693,-0.40210458636283875,-0.0001553856855025515,-1.1933952569961548,0.10007208585739136,0.7664060592651367,0.6975705244680005,0.3867127756113271,0.5919252793548387,-0.11607399872008886
1709730864383092500,3.221092529296875,-3.443734645843506,-2.2001900672912598,-4.870159149169922,0.933260440826416,-0.3577766716480255,-0.03195039555430412,-1.268679141998291,0.2887611389160156,0.7906022667884827,0.7070153798145545,0.35988896619648153,0.5954030009678238,-0.1269034614240373
1709730864393111600,3.231111572265625,-3.7201476097106934,-2.4291605949401855,-5.12717866897583,0.9488493204116821,-0.3088359534740448,-0.06561874598264694,-1.304958701133728,0.5210856199264526,0.7457488179206848,0.7167658444255334,0.33064979075679646,0.5982151304791119,-0.1380448104807816
1709730864403131400,3.24113134765625,-3.9171767234802246,-2.6172261238098145,-5.353306293487549,0.9615554213523865,-0.2554739713668823,-0.10072015225887299,-1.3113019466400146,0.6866568326950073,0.6808441281318665,0.7266356566047347,0.2992796104248804,0.6000596948125122,-0.14953553897338942
1709730864413150200,3.251150146484375,-4.120925426483154,-2.8275949954986572,-5.629193305969238,0.9707966446876526,-0.19751712679862976,-0.13616538047790527,-1.2996234893798828,0.7926861643791199,0.6628836393356323,0.7362278696550723,0.2659015823236168,0.601010530692211,-0.16140414122524208
1709730864423169300,3.261169189453125,-4.313278675079346,-3.050934076309204,-5.848584175109863,0.975820004940033,-0.13498564064502716,-0.1719139665365219,-1.2884572744369507,0.8804384469985962,0.5966119766235352,0.7455144129156267,0.23049127239060796,0.6007635034851825,-0.1736819026644597
1709730864433189400,3.271189453125,-4.543483257293701,-3.1434409618377686,-6.041673183441162,0.9759935736656189,-0.06842252612113953,-0.2067735195159912,-1.2366745471954346,0.9541494250297546,0.5583056211471558,0.7541771523660352,0.19320777391832034,0.5994030324032852,-0.18602112237907295
1709730864443208400,3.28120849609375,-4.821081161499023,-3.1682288646698,-6.241321563720703,0.9709849953651428,0.001988911535590887,-0.23913264274597168,-1.2358622550964355,1.0502877235412598,0.638836681842804,0.7618108131753822,0.15394350413648641,0.5972730311819333,-0.19801711385378817
1709730864453227500,3.2912275390625,-4.825231552124023,-3.1719918251037598,-6.425786018371582,0.9604537487030029,0.07564520835876465,-0.26796749234199524,-1.2642103433609009,1.1445543766021729,0.7060931921005249,0.7680357186811543,0.11325879020360448,0.5942968150531759,-0.21001189238946422
1709730864463246300,3.301246337890625,-4.971131324768066,-3.1786928176879883,-6.549777984619141,0.9441437721252441,0.1513187140226364,-0.2927374243736267,-1.2572236061096191,1.2137478590011597,0.6981940269470215,0.7727102747080078,0.07169430023054361,0.5903314511241384,-0.22200795511827726
1709730864473266400,3.311266357421875,-4.977528095245361,-3.2014482021331787,-6.7132649421691895,0.9218494296073914,0.22851073741912842,-0.3130118250846863,-1.2378284931182861,1.324177861213684,0.6657035946846008,0.7757740586237227,0.02916293629807377,0.5853576829427225,-0.23383859912569954
1709730864483285500,3.321285400390625,-4.729947090148926,-3.2711262702941895,-6.840294361114502,0.8932675123214722,0.3058774471282959,-0.3294123113155365,-1.2114894390106201,1.395721673965454,0.5794428586959839,0.7772494696581431,-0.013438744384429319,0.5788896699205522,-0.24614961253658657
1709730864493304600,3.3313046875,-4.497244834899902,-3.3938961029052734,-6.859526634216309,0.8583967685699463,0.38159501552581787,-0.3428415358066559,-1.1396162509918213,1.4069334268569946,0.41501563787460327,0.7773762615611606,-0.05531184871900623,0.5705434525002349,-0.2590501927474091
1709730864503324400,3.341324462890625,-4.560922622680664,-3.433018445968628,-6.710858345031738,0.8180068135261536,0.4544476866722107,-0.35262197256088257,-1.0398848056793213,1.3583422899246216,0.30724239349365234,0.7763182478570331,-0.09671176628359142,0.5606566254665394,-0.27136882399522355
1709730864513343200,3.35134326171875,-4.553390979766846,-3.4630274772644043,-6.6502275466918945,0.7730439305305481,0.5238720774650574,-0.3577166497707367,-0.9816009998321533,1.1975023746490479,0.3159228563308716,0.7739558536123237,-0.13773717973117833,0.5497000549304989,-0.2825787522154068
1709730864523362300,3.3613623046875,-4.553953170776367,-3.624612808227539,-6.672494888305664,0.723124086856842,0.5902151465415955,-0.35880035161972046,-0.9722848534584045,1.0503029823303223,0.2998404800891876,0.7703777143119582,-0.17863375356793468,0.5372986236720269,-0.29311839633511794
1709730864533382400,3.37138232421875,-4.317920684814453,-3.680763006210327,-6.656655311584473,0.6684579849243164,0.6526578664779663,-0.35665345191955566,-0.9572000503540039,1.1140352487564087,0.2746070325374603,0.7657203937661838,-0.21892183619285785,0.5232078959728423,-0.30331352411522144
1709730864543401500,3.3814013671875,-4.107851505279541,-3.7298989295959473,-6.637182235717773,0.6098906993865967,0.7101925611495972,-0.35165315866470337,-0.9583404064178467,1.2551243305206299,0.32160869240760803,0.7599953437777031,-0.25789865458096806,0.5076038788227043,-0.3134225278194515
1709730864553420300,3.391420166015625,-3.9239678382873535,-3.8180532455444336,-6.556827068328857,0.5480341911315918,0.7625158429145813,-0.3438432216644287,-0.9363855719566345,1.315441370010376,0.3252580761909485,0.7533132412865104,-0.29564713289930933,0.49058247600401184,-0.3231730500921474
1709730864563440400,3.4014404296875,-3.671194553375244,-4.045477390289307,-6.459993839263916,0.48343294858932495,0.8090963959693909,-0.33414915204048157,-0.8867532014846802,1.2346200942993164,0.2807740271091461,0.7461037181118685,-0.33207621739289583,0.47185888577951896,-0.3322707146287418
1709730864573459500,3.41145947265625,-3.4427132606506348,-4.303386211395264,-6.297657012939453,0.4165312349796295,0.8495637774467468,-0.32364100217819214,-0.8670163154602051,1.1832733154296875,0.22349759936332703,0.7388295624869808,-0.3670532894719492,0.4510558472792459,-0.340516712059662
1709730864583478500,3.421478515625,-3.5424563884735107,-4.250025272369385,-6.107108116149902,0.3490055203437805,0.8844418525695801,-0.3097705841064453,-0.8630740642547607,1.25471830368042,0.1765461564064026,0.7308953807522076,-0.40098219144852265,0.4293343597325262,-0.34738633800272745
1709730864593498400,3.431498291015625,-3.573235273361206,-4.121273040771484,-5.9670491218566895,0.282037615776062,0.9142352342605591,-0.2909103035926819,-0.886804461479187,1.2357892990112305,0.24632418155670166,0.721619423573921,-0.43390001918660204,0.4077690833674024,-0.3531580627638488
1709730864603517400,3.441517333984375,-3.810687303543091,-4.13100004196167,-5.835687160491943,0.21566538512706757,0.9392604231834412,-0.26698005199432373,-0.9357276558876038,1.030801773071289,0.2432679831981659,0.7110058238073106,-0.466205161975722,0.38621589794502226,-0.35771602901819605
1709730864613536300,3.451536376953125,-3.8273141384124756,-4.121042251586914,-5.733786582946777,0.1501828134059906,0.9596134424209595,-0.2378811091184616,-0.9750271439552307,0.9293332099914551,0.14194917678833008,0.6990443810862452,-0.498113448701575,0.3646127272745883,-0.36094000856316266
1709730864623556400,3.461556396484375,-3.5354557037353516,-4.142290115356445,-5.626617908477783,0.08590801060199738,0.974542498588562,-0.2070913314819336,-0.9973917603492737,0.9793149828910828,-0.01068204641342163,0.6865856071423225,-0.5284418709715772,0.3423500064231145,-0.3635188483335877
1709730864633575400,3.471575439453125,-3.3873023986816406,-4.180511951446533,-5.571000576019287,0.02302570454776287,0.9842264652252197,-0.1754089742898941,-0.9593049883842468,1.0744284391403198,-0.18761283159255981,0.6738703442575343,-0.5571036070992302,0.31926647726504165,-0.3655179330707357
1709730864643594500,3.481594482421875,-3.145634174346924,-4.160306930541992,-5.532553195953369,-0.0386020727455616,0.9890159964561462,-0.14267925918102264,-0.9033840298652649,1.1174904108047485,-0.2565363645553589,0.6607287753358904,-0.5842784228487145,0.2954303598842378,-0.3671201396084698
1709730864653614600,3.491614501953125,-2.966060161590576,-4.132572174072266,-5.334683418273926,-0.09775727987289429,0.9891431927680969,-0.10972464829683304,-0.8868008255958557,1.0477983951568604,-0.2824109196662903,0.6475101621718803,-0.6095901671897925,0.2711779929449548,-0.36822960610809985
1709730864663633400,3.50163330078125,-2.833299398422241,-4.0907087326049805,-5.25424861907959,-0.15386982262134552,0.9851875305175781,-0.07569640874862671,-0.8944395780563354,1.0058099031448364,-0.3260674476623535,0.6340214556544668,-0.6333999487847437,0.24689329951999373,-0.36859895173674295
1709730864673652500,3.511652587890625,-2.506295919418335,-4.112053871154785,-5.210759162902832,-0.2078161984682083,0.9772680401802063,-0.04195088893175125,-0.9236993193626404,0.9829371571540833,-0.4913741946220398,0.6205144157439919,-0.6555298644816555,0.22204763640796935,-0.3686969496764805
1709730864683672300,3.52167236328125,-2.145521402359009,-3.9636287689208984,-4.975259304046631,-0.25859206914901733,0.9659383296966553,-0.009668122045695782,-0.9331651329994202,0.9166911244392395,-0.7231045961380005,0.6075481106535872,-0.6755878454286349,0.19684258244065103,-0.3684012060641537
1709730864693691400,3.53169140625,-1.4662251472473145,-3.49372935295105,-4.487574577331543,-0.30408501625061035,0.9524685740470886,0.01833568699657917,-0.9405744671821594,0.8389286398887634,-0.7905676364898682,0.5960201475955058,-0.692357921477244,0.17265095524171017,-0.368228546021517
1709730864703710200,3.541710205078125,-1.0451241731643677,-3.218493700027466,-3.9886579513549805,-0.3430503010749817,0.9384309649467468,0.04078929126262665,-1.004606008529663,0.7572782039642334,-0.6570001840591431,0.5866211066495278,-0.7055514670233444,0.15030560091580664,-0.3680774618274777
1709730864713730300,3.551730224609375,-0.8851718306541443,-3.1213181018829346,-3.8002805709838867,-0.3776039183139801,0.9239364862442017,0.061294395476579666,-1.0290580987930298,0.8512253761291504,-0.6491239070892334,0.57824460574895,-0.7169388016463176,0.12901919692182717,-0.3674045942746474
1709730864723749400,3.561749267578125,-0.6381993293762207,-2.9894628524780273,-3.713069200515747,-0.40994834899902344,0.9085677862167358,0.0802948921918869,-0.9718723297119141,0.9883286952972412,-0.7204619646072388,0.5704050712346986,-0.7269631554512017,0.10803710645870188,-0.36672985556479526
1709730864733768400,3.5717685546875,-0.3290516138076782,-2.9885427951812744,-3.578896999359131,-0.44023314118385315,0.8925780057907104,0.0974651500582695,-0.8781720399856567,1.0309298038482666,-0.821601390838623,0.5633534883801979,-0.7356266320831341,0.08709783327263919,-0.36592400387805646
1709730864743788500,3.58178857421875,-0.06577442586421967,-3.0091655254364014,-3.3708276748657227,-0.4678802788257599,0.8765730261802673,0.11272992193698883,-0.7224578857421875,1.0327287912368774,-1.0227792263031006,0.5574716893270684,-0.7429608951861542,0.06613673364962269,-0.3645003406529907
1709730864753807400,3.591807373046875,0.07670735567808151,-3.054706335067749,-3.0781474113464355,-0.4923895299434662,0.8609828948974609,0.12751919031143188,-0.563274621963501,0.9559574127197266,-1.2151198387145996,0.5523740522905795,-0.7494531599821352,0.04560215428427015,-0.3621096383492906
1709730864763826400,3.601826416015625,0.6243850588798523,-3.0148839950561523,-2.7453272342681885,-0.5132900476455688,0.8467308282852173,0.1399293690919876,-0.4623110890388489,0.8906195759773254,-1.2690796852111816,0.5489288756861855,-0.7545258941426989,0.025599953133252678,-0.3587651249288707
1709730864773846300,3.61184619140625,1.135741949081421,-2.9097399711608887,-2.3300559520721436,-0.5303360223770142,0.8348007202148438,0.14782309532165527,-0.4522079825401306,0.9210129380226135,-1.1934772729873657,0.5480462780464816,-0.7575433588916726,0.006293328864400383,-0.35458964922960584
1709730864783865300,3.621865234375,1.3280614614486694,-2.80329966545105,-2.068727731704712,-0.5442466735839844,0.8248459696769714,0.15305201709270477,-0.4150734543800354,1.0224593877792358,-1.0116791725158691,0.5487872275317722,-0.7591974417473645,-0.01205198676484527,-0.3497237459365849
1709730864793884400,3.631884521484375,1.208089828491211,-2.6130099296569824,-2.003361225128174,-0.5567114949226379,0.8156954646110535,0.15720386803150177,-0.3576866388320923,0.9843380451202393,-0.7985917329788208,0.5499836378947546,-0.7600850790873255,-0.02953993222766163,-0.3448420218318607
1709730864803904500,3.641904541015625,0.738048791885376,-2.563657522201538,-1.9447600841522217,-0.5685456991195679,0.8061439394950867,0.16397471725940704,-0.3323025703430176,0.8032158017158508,-0.7057837247848511,0.5497781815570184,-0.7615042127230993,-0.045811472734539,-0.3402301769811548
1709730864813923300,3.65192333984375,0.721980631351471,-2.291691303253174,-1.8271743059158325,-0.5796878933906555,0.796454668045044,0.17211128771305084,-0.26415377855300903,0.5816734433174133,-0.5910564661026001,0.5487252026010979,-0.7631047097409922,-0.0610478793645798,-0.3359243125856325
1709730864823942400,3.6619423828125,0.18950074911117554,-1.929674506187439,-1.6512120962142944,-0.5896090269088745,0.787198007106781,0.18077892065048218,-0.24481797218322754,0.3139679431915283,-0.3292163610458374,0.5469254206698173,-0.7647735483570256,-0.07423529940920436,-0.3323903294520024
1709730864833962500,3.67196240234375,0.1101345494389534,-1.3393634557724,-1.7777972221374512,-0.5998973250389099,0.7772272229194641,0.18984651565551758,-0.3343527317047119,0.2750800848007202,-0.14692337810993195,0.5437879004282643,-0.7665717479822808,-0.08538742673859222,-0.3307139860575619
1709730864843981600,3.681981689453125,0.6810177564620972,-0.8633403182029724,-1.797245979309082,-0.6118472814559937,0.7669422626495361,0.19350115954875946,-0.40530359745025635,0.39695239067077637,-0.15620853006839752,0.5417524097389773,-0.7665135392795291,-0.09595611855179208,-0.3312911823476651
1709730864854000400,3.69200048828125,1.3913013935089111,-0.6663780212402344,-1.4728593826293945,-0.6229991316795349,0.7587506771087646,0.1901835948228836,-0.29126179218292236,0.5425036549568176,-0.2725808620452881,0.5426013374396967,-0.7641065960272192,-0.10598539847306976,-0.33240355539321714
1709730864864020200,3.702020263671875,1.631852626800537,-0.6503193378448486,-1.1745827198028564,-0.6317022442817688,0.7534071803092957,0.18256525695323944,-0.09696602821350098,0.6180223226547241,-0.30611562728881836,0.5459921967370847,-0.7602397031329019,-0.11540459783389134,-0.33258078937390073
1709730864874039300,3.712039306640625,1.460776686668396,-0.5245547890663147,-1.0409351587295532,-0.6389275789260864,0.7491904497146606,0.17460113763809204,-0.02078622579574585,0.5378579497337341,-0.18009424209594727,0.5497122752513619,-0.7562933950366162,-0.1237774919826405,-0.33243948003809914
1709730864884058400,3.722058349609375,1.4654489755630493,-0.42967966198921204,-0.9704708456993103,-0.6456854939460754,0.7451421618461609,0.16689378023147583,-0.01151055097579956,0.3160760998725891,-0.1290823370218277,0.5531669004125023,-0.7524629065889901,-0.1313257876714118,-0.3325049923107046
1709730864894078500,3.732078369140625,1.3919867277145386,-0.272703617811203,-0.8324703574180603,-0.6517509818077087,0.7417191863059998,0.15834631025791168,0.013704657554626465,0.06846147775650024,-0.19685937464237213,0.5569077588959043,-0.7484053836539116,-0.13806714270260834,-0.3326870995642629
1709730864904097300,3.74209716796875,1.3290854692459106,-0.14536690711975098,-0.9072329998016357,-0.6578454971313477,0.7381048202514648,0.14980240166187286,0.008324623107910156,0.06421756744384766,-0.1825324445962906,0.5603425816649252,-0.744388341678245,-0.14417766087681466,-0.33333925945939075
1709730864914116400,3.752116455078125,1.374792218208313,0.03319377824664116,-0.8921773433685303,-0.6644855737686157,0.7340487837791443,0.140112966299057,-0.07898378372192383,0.215551495552063,-0.11383724212646484,0.5638186452071547,-0.7399825531783903,-0.1499410065762644,-0.33474202343585974
1709730864924136400,3.762136474609375,1.3707144260406494,0.10198594629764557,-0.8014980554580688,-0.6707741618156433,0.7302519083023071,0.1295938789844513,-0.13415759801864624,0.29429954290390015,-0.13412559032440186,0.5675429936353287,-0.7353244876483334,-0.15522511978317205,-0.3363007248231543
1709730864934155500,3.772155517578125,1.227796196937561,0.165334552526474,-0.8031651973724365,-0.6767491102218628,0.726515531539917,0.1191057413816452,-0.12510031461715698,0.2875683903694153,-0.11591649055480957,0.5711104141676111,-0.7307321762987989,-0.159947981828085,-0.33805354523352776
1709730864944174600,3.782174560546875,1.118444800376892,0.12136369198560715,-0.7852213382720947,-0.6827386617660522,0.7223951816558838,0.10960505902767181,-0.13818418979644775,0.2661607265472412,-0.12039292603731155,0.5741233329956908,-0.726480810473907,-0.1644024382645029,-0.3399705337098995
1709730864954194400,3.7921943359375,1.0744099617004395,-0.04932709038257599,-0.6618688106536865,-0.6880834698677063,0.718508780002594,0.1014224961400032,-0.13180184364318848,0.3202180862426758,-0.19837677478790283,0.5768797909820361,-0.7226409515449579,-0.16882328519295256,-0.34131886564537584
1709730864964213200,3.802213134765625,0.9467442035675049,-0.1600336879491806,-0.4553065598011017,-0.6919583678245544,0.715670645236969,0.09491658955812454,-0.06739526987075806,0.3783082962036133,-0.2564307451248169,0.5795062229431207,-0.7194171778410778,-0.1729081206946444,-0.3416346898063874
1709730864974232300,3.812232421875,0.6697272658348083,-0.14502331614494324,-0.3679141402244568,-0.6946743130683899,0.7136515974998474,0.09016140550374985,-0.05022931098937988,0.3334369659423828,-0.17387104034423828,0.5816038341613828,-0.716971543255238,-0.17616046759792756,-0.3415498725751468
1709730864984252400,3.82225244140625,0.48692524433135986,-0.10079091787338257,-0.3388603925704956,-0.697145938873291,0.7116336822509766,0.0869772806763649,-0.10177373886108398,0.23187822103500366,-0.1479513794183731,0.5829187373464498,-0.7152031705385813,-0.17881014003819284,-0.3416388316259495
1709730864994271500,3.832271484375,0.3675210773944855,-0.11366623640060425,-0.22290635108947754,-0.6990588307380676,0.7100396156311035,0.08462031185626984,-0.07538574934005737,0.15102910995483398,-0.20652270317077637,0.5838812124268631,-0.7138689828085638,-0.1808348195290514,-0.34172008610435933
1709730865004290300,3.842290283203125,0.34979134798049927,-0.12452585995197296,-0.16175031661987305,-0.7003055810928345,0.7089934945106506,0.08306916803121567,-0.007290303707122803,0.12854623794555664,-0.2746584415435791,0.5846646430494149,-0.7129092063335833,-0.1824693079626761,-0.34151533308686916
1709730865014310400,3.852310302734375,0.43003666400909424,-0.1248190701007843,-0.08855146169662476,-0.7010906338691711,0.7084441184997559,0.08111140131950378,0.029642820358276367,0.13178116083145142,-0.3180497884750366,0.5857477493009062,-0.7118447757502248,-0.18393671229586803,-0.3410923362210597
1709730865024329500,3.86232958984375,0.5087277293205261,-0.10127215832471848,-0.0200248621404171,-0.7013854384422302,0.7084360122680664,0.07859571278095245,0.042754948139190674,0.08994972705841064,-0.3512396812438965,0.5872280551695808,-0.7106088287607488,-0.18529152691376138,-0.34039028227450063
1709730865034348500,3.8723486328125,0.4908938705921173,-0.053713954985141754,0.03127134591341019,-0.7012633681297302,0.7088888883590698,0.07554152607917786,0.07900989055633545,0.013523280620574951,-0.32442760467529297,0.5889654563769503,-0.7092600835332686,-0.18633544502727564,-0.33963077599851976
1709730865044368400,3.882368408203125,0.447174608707428,-0.03370019420981407,0.04916965588927269,-0.7009360194206238,0.7095280885696411,0.07251868396997452,0.1145559549331665,-0.04860883951187134,-0.26270413398742676,0.5906596214487989,-0.7079880628142388,-0.18711559226340424,-0.3389130562045149
1709730865054387000,3.892386962890625,0.4280182421207428,-0.004024856723845005,0.08384108543395996,-0.7004644274711609,0.7102863192558289,0.06959403306245804,0.14519697427749634,-0.0635882019996643,-0.2597794532775879,0.5922711624738436,-0.7068087552612744,-0.18766565661516219,-0.33825734529209167
1709730865064406000,3.902406005859375,0.48452332615852356,0.0750226080417633,0.1881999671459198,-0.6995536088943481,0.7115204930305481,0.06605886667966843,0.1714315414428711,-0.055087268352508545,-0.2715946435928345,0.594165696474946,-0.7054972595754853,-0.1878910616382301,-0.337546840511353
1709730865074425900,3.91242578125,0.387655645608902,0.10528863966464996,0.25315526127815247,-0.6979935169219971,0.7133867740631104,0.06232602894306183,0.1635238528251648,-0.039940059185028076,-0.23880910873413086,0.5961502022974888,-0.7042723101647358,-0.18751940816190865,-0.336811532612525
1709730865084444700,3.922444580078125,0.3948107659816742,0.0030119596049189568,0.35781270265579224,-0.6959196329116821,0.7156975269317627,0.058934781700372696,0.13157320022583008,0.0018471479415893555,-0.16827917098999023,0.5981517981001434,-0.703214134893316,-0.1869686381495298,-0.33577848478153227
1709730865094463700,3.932463623046875,0.28521156311035156,-0.08652644604444504,0.3929278254508972,-0.693105936050415,0.7185671925544739,0.05714455246925354,0.12488377094268799,0.06257599592208862,-0.0837099552154541,0.5998320540000635,-0.7027513831844331,-0.18631363252298205,-0.334109718342155
1709730865104483800,3.94248388671875,0.4122574031352997,0.07365304976701736,0.511309027671814,-0.6899299025535583,0.7218226194381714,0.0544910803437233,0.1929052472114563,0.1512853503227234,-0.0030688047409057617,0.6018744231587926,-0.7020468129796954,-0.18540715543298814,-0.33241818595497424
1709730865114503000,3.9525029296875,0.24647028744220734,0.1601373553276062,0.4994657039642334,-0.686194658279419,0.7256036996841431,0.05134747549891472,0.22522658109664917,0.21012639999389648,0.03394925594329834,0.6039883622729849,-0.7013616774224397,-0.18375400862110056,-0.33094488149230256
1709730865124522000,3.96252197265625,0.29413580894470215,0.29207950830459595,0.43474477529525757,-0.6830096244812012,0.7288333773612976,0.04795808717608452,0.1477007269859314,0.25699126720428467,-0.05761682987213135,0.6058458357999507,-0.7006288939026623,-0.18192909521682668,-0.3301088804173986
1709730865134542000,3.9725419921875,0.2786085307598114,0.44970667362213135,0.4962664544582367,-0.6797181963920593,0.7322010397911072,0.04318418353796005,0.19860857725143433,0.17182117700576782,-0.1962144374847412,0.608023766058175,-0.6995202427791747,-0.17962049258814475,-0.32971967047924033
1709730865144561000,3.982560791015625,0.23699155449867249,0.5584555268287659,0.449696809053421,-0.6764588356018066,0.7355054616928101,0.037887100130319595,0.26854556798934937,0.05551028251647949,-0.26940858364105225,0.6101354277757096,-0.6983356921163414,-0.17683554784879937,-0.32983534868977576
1709730865154580000,3.992580078125,0.17401845753192902,0.6154721975326538,0.4866945147514343,-0.673249363899231,0.7387071847915649,0.03236328065395355,0.2306680679321289,-0.01553201675415039,-0.3334953784942627,0.6121458604289759,-0.6971298275379136,-0.17375742771146513,-0.3302968747689126
1709730865164599800,4.002599853515625,0.08879463374614716,0.6032096147537231,0.4952144920825958,-0.6697449088096619,0.7420905232429504,0.02727353945374489,0.22925406694412231,-0.04982966184616089,-0.37097764015197754,0.6139509486774307,-0.6961438371302374,-0.17035412352869328,-0.33079855580897555
1709730865174619000,4.012618896484375,0.10125397145748138,0.5621159672737122,0.48950469493865967,-0.666253387928009,0.7453790903091431,0.022733526304364204,0.23574179410934448,0.004758298397064209,-0.3774697780609131,0.6155510960659879,-0.6953260267561585,-0.16699844346864326,-0.3312555691248667
1709730865184637700,4.0226376953125,0.16603243350982666,0.5173264741897583,0.5079441666603088,-0.6626157164573669,0.7487404346466064,0.018129192292690277,0.2018764615058899,0.0801323652267456,-0.3569200038909912,0.6173006609615539,-0.6944274382948079,-0.1638143114267041,-0.33147475580613117
1709730865194657800,4.03265771484375,0.15677155554294586,0.4803479313850403,0.4799937307834625,-0.6589722633361816,0.7520446181297302,0.013591417111456394,0.13477176427841187,0.08526623249053955,-0.29200315475463867,0.619103145064214,-0.6934911627311596,-0.16082821784776852,-0.33153540543428783
1709730865204676900,4.0426767578125,0.17456066608428955,0.4599952697753906,0.4807894825935364,-0.6554324626922607,0.7551973462104797,0.00923848431557417,0.07837551832199097,0.023718059062957764,-0.2397681474685669,0.6208477665994822,-0.6925728920916846,-0.15799377002521614,-0.3315552098033657
1709730865214696000,4.052696044921875,0.1397813856601715,0.4701496362686157,0.4823719561100006,-0.6517923474311829,0.7583807706832886,0.005044916644692421,0.058942556381225586,-0.028278231620788574,-0.1997469663619995,0.6225499358358735,-0.6917052281890241,-0.1551332833503548,-0.33152554365264475
1709730867398912800,6.236912841796875,-2.2461113929748535,-0.2991568148136139,-2.760749578475952,0.7390714883804321,-0.6511282324790955,0.17264346778392792,-0.7575345635414124,-0.06859838962554932,0.3541816473007202,0.6430566215383298,0.4949047263355941,0.5842867816166092,0.012515016028785483
1709730867408931800,6.246931884765625,-2.3714234828948975,-0.41293099522590637,-3.151453733444214,0.7586870193481445,-0.6327158808708191,0.15512855350971222,-0.8350724577903748,-0.053487181663513184,0.4204789400100708,0.6498906073952608,0.4787625988551852,0.5902123760805937,0.00883518348096278
1709730867418951000,6.256950927734375,-2.5069050788879395,-0.4916127622127533,-3.5041463375091553,0.7800682783126831,-0.6106471419334412,0.1363966464996338,-0.9262168407440186,-0.006357371807098389,0.5321673154830933,0.6571032102658778,0.46087605603883774,0.5964826745461894,0.004158446752719323
1709730867428970800,6.266970703125,-2.5489673614501953,-0.6047038435935974,-3.8649003505706787,0.8028355836868286,-0.5846270322799683,0.11690337210893631,-1.0293827056884766,0.053468525409698486,0.6530399322509766,0.6644889542959298,0.4414296979615158,0.6029854955677165,-0.0016777277041280076
1709730867438989600,6.276989501953125,-2.6663827896118164,-0.7024045586585999,-4.24545431137085,0.8266462683677673,-0.554344892501831,0.09673505276441574,-1.1185927391052246,0.12246012687683105,0.7022914886474609,0.6719791735738552,0.4204055630859524,0.6096119162191452,-0.008745444611367467
1709730867449008600,6.287008544921875,-2.7932350635528564,-0.8965248465538025,-4.641180038452148,0.8512574434280396,-0.5193119645118713,0.07534027844667435,-1.1800537109375,0.21479225158691406,0.6817399263381958,0.6797354320332687,0.3974264483302555,0.6162161597863447,-0.017021388320583804
1709730867459028700,6.29702880859375,-2.8544018268585205,-1.1392810344696045,-4.9571757316589355,0.8759365081787109,-0.47957250475883484,0.0524030439555645,-1.2079827785491943,0.2775917947292328,0.5735278129577637,0.6878134002031456,0.3727540914309052,0.6222988910891664,-0.02667367960773524
1709730867469047800,6.3070478515625,-2.9693472385406494,-1.3781917095184326,-5.28339958190918,0.8999040126800537,-0.4351978302001953,0.027853213250637054,-1.1974809169769287,0.31215089559555054,0.5205477476119995,0.6961762291999272,0.34644081253285874,0.6276188091646812,-0.03757844191255181
1709730867479067000,6.31706689453125,-3.1372504234313965,-1.6483262777328491,-5.572465419769287,0.922478973865509,-0.3860446512699127,0.0015230488497763872,-1.2448513507843018,0.40705594420433044,0.5522490739822388,0.7048301598235271,0.31826953313454714,0.6320332497046758,-0.04952847366733945
1709730867489087000,6.3270869140625,-3.293238401412964,-1.962700366973877,-5.836061000823975,0.9427861571311951,-0.3323044776916504,-0.0269863773137331,-1.3065708875656128,0.5620712637901306,0.5748533010482788,0.7138677710179989,0.2882158342335368,0.6351680438054452,-0.062339028949812275
1709730867499105800,6.337105712890625,-3.5818777084350586,-2.2388229370117188,-6.061297416687012,0.9599817991256714,-0.2741127908229828,-0.05742349475622177,-1.3068749904632568,0.7434273362159729,0.5886735916137695,0.7231762125623395,0.2561766843675371,0.6369158179672194,-0.07568423689068796
1709730867509124900,6.347124755859375,-3.885467290878296,-2.4836342334747314,-6.243436336517334,0.9732357263565063,-0.2117108404636383,-0.08939192444086075,-1.3167567253112793,0.9051617383956909,0.6658080220222473,0.7326403568469211,0.2219566084584708,0.6372121318101616,-0.0890738612372826
1709730867519144700,6.357144775390625,-4.1320295333862305,-2.6628212928771973,-6.463807106018066,0.9818680882453918,-0.1452115774154663,-0.1218547374010086,-1.3379014730453491,1.0344480276107788,0.6980113983154297,0.7419274095882611,0.18559372227136234,0.6361034519461982,-0.10232813643871484
1709730867529163800,6.367163818359375,-4.305976390838623,-2.882868528366089,-6.600778579711914,0.9852637052536011,-0.07489821314811707,-0.15377257764339447,-1.3153111934661865,1.173485279083252,0.6597998738288879,0.7506675832685763,0.14752539206238177,0.6335218800638127,-0.11569201365696019
1709730867539182600,6.3771826171875,-4.5412373542785645,-3.1075291633605957,-6.719805717468262,0.982720136642456,-0.0016978130443021655,-0.18509049713611603,-1.295998215675354,1.2882425785064697,0.6000075936317444,0.7589179917358977,0.1078911403425272,0.6291377033897453,-0.12879790962193832
1709730867549202700,6.38720263671875,-4.723898887634277,-3.278998374938965,-6.76898193359375,0.9738885164260864,0.0738389790058136,-0.21468417346477509,-1.2682456970214844,1.3731520175933838,0.5226523876190186,0.7663812750755922,0.06680490990749097,0.623052978432458,-0.14142861544490612
1709730867559221800,6.3972216796875,-4.828131675720215,-3.510910749435425,-6.719999313354492,0.9585526585578918,0.15011073648929596,-0.24216453731060028,-1.2424118518829346,1.4178061485290527,0.430686891078949,0.7730124873509104,0.024966317510087283,0.6150564329994221,-0.15340811102375973
1709730867569240800,6.40724072265625,-4.974411964416504,-3.769207239151001,-6.71155309677124,0.936576247215271,0.2264385223388672,-0.26748955249786377,-1.2019875049591064,1.4041309356689453,0.31611940264701843,0.7788751913717823,-0.017508834471590004,0.6049369063729897,-0.16461561897859903
1709730867579261000,6.417260986328125,-5.1485700607299805,-3.9786086082458496,-6.733822345733643,0.9079115986824036,0.3027135729789734,-0.2899331748485565,-1.1160871982574463,1.4276179075241089,0.2674264907836914,0.7838124350661874,-0.06080819374229591,0.5927358437596043,-0.17494229775394757
1709730867589279700,6.42727978515625,-5.118059158325195,-4.085638523101807,-6.752436637878418,0.8727524876594543,0.37840381264686584,-0.30840563774108887,-1.0388288497924805,1.5171345472335815,0.25890615582466125,0.7874498056182647,-0.10451557449314673,0.5786827125560841,-0.18473186438920738
1709730867599298800,6.437298828125,-5.004671096801758,-4.065262794494629,-6.719344139099121,0.8317661881446838,0.4519551396369934,-0.32233768701553345,-0.9331608414649963,1.5042216777801514,0.2473255693912506,0.7895644407333053,-0.14763714761387378,0.5630581084665814,-0.19431125532866508
1709730867609318700,6.447318603515625,-4.91014289855957,-3.856724977493286,-6.663843154907227,0.7861208915710449,0.5225462317466736,-0.33009016513824463,-0.8520235419273376,1.3622804880142212,0.2472350001335144,0.7896879232948701,-0.1899289890172567,0.5467009203182127,-0.20356374198559404
1709730867619337700,6.457337646484375,-4.60586404800415,-3.7216522693634033,-6.5879364013671875,0.7366570830345154,0.5888436436653137,-0.33256515860557556,-0.8512352705001831,1.193108320236206,0.24815362691879272,0.7879760377130238,-0.23043809567671605,0.5297317222116152,-0.2130175164981536
1709730867629356800,6.467356689453125,-4.437277793884277,-3.7085683345794678,-6.614468097686768,0.6833115816116333,0.65091472864151,-0.33074966073036194,-0.8609391450881958,1.1037087440490723,0.1353457272052765,0.784766616849255,-0.2695954211777178,0.5118041335610612,-0.22252236280058574
1709730867639376600,6.477376708984375,-4.043636798858643,-3.7884538173675537,-6.547125816345215,0.6261144876480103,0.7081007957458496,-0.32645684480667114,-0.8563695549964905,1.1440720558166504,0.002222895622253418,0.7805585353966887,-0.30704070097125363,0.49244043461839526,-0.23228630463325284
1709730867649395700,6.487395751953125,-3.834533214569092,-3.869997501373291,-6.426359176635742,0.5659391283988953,0.7595979571342468,-0.32050588726997375,-0.8281766176223755,1.1432188749313354,-0.16524237394332886,0.7757310504778826,-0.3425715951699875,0.4715843093175227,-0.24185612833322162
1709730867659414800,6.497414794921875,-3.9069266319274902,-3.887371301651001,-6.34372615814209,0.5035904049873352,0.8060057163238525,-0.3110491633415222,-0.7600601315498352,1.1138856410980225,-0.202622652053833,0.7698684600216038,-0.3770198216286644,0.449812701110843,-0.2506536507379882
1709730867669435000,6.507434814453125,-4.057297706604004,-3.82934308052063,-6.24808931350708,0.43959903717041016,0.8479554057121277,-0.2961832880973816,-0.7504968643188477,1.0992339849472046,-0.11195874214172363,0.7624293906613011,-0.41112576207697327,0.4276493420170412,-0.25844381372911435
1709730867679454000,6.517453857421875,-3.8393020629882812,-3.7775766849517822,-6.140483856201172,0.37487420439720154,0.8846405744552612,-0.27727368474006653,-0.7566337585449219,1.1702148914337158,0.014105409383773804,0.7537322506592122,-0.4440931230000409,0.4051474474005241,-0.26556501761434115
1709730867689473800,6.527473876953125,-3.5704147815704346,-3.7573158740997314,-5.973093509674072,0.31012099981307983,0.9153556823730469,-0.2568054795265198,-0.7803357839584351,1.2888984680175781,0.09448254108428955,0.7444772241297045,-0.4750219426033904,0.3820358751899668,-0.2723169086098405
1709730867699492600,6.53749267578125,-3.3991544246673584,-3.7093629837036133,-5.826485633850098,0.24604983627796173,0.9403552412986755,-0.23492920398712158,-0.7859362959861755,1.4136029481887817,0.08034247159957886,0.7347490872704866,-0.5039800475630225,0.35852407628722405,-0.27858309511133433
1709730867709511700,6.54751171875,-3.258443593978882,-3.7360637187957764,-5.64388370513916,0.18311703205108643,0.960167646408081,-0.21106047928333282,-0.7737694978713989,1.379996657371521,-0.055327415466308594,0.7244432899347271,-0.5314048469525523,0.33478149913913136,-0.28409920647658493
1709730867719531800,6.55753173828125,-3.0421340465545654,-3.7457661628723145,-5.474349021911621,0.12172754108905792,0.974916934967041,-0.18633171916007996,-0.7553487420082092,1.1836066246032715,-0.2879266142845154,0.7139514471364697,-0.5570796014916067,0.31063878985670457,-0.28885861545806485
1709730867729550800,6.56755078125,-2.85707950592041,-3.7813425064086914,-5.322500228881836,0.06218474730849266,0.9850389361381531,-0.16072165966033936,-0.7498831152915955,1.0225905179977417,-0.5018759369850159,0.7032854414583543,-0.5811503629624326,0.28618774464481533,-0.29283178905510865
1709730867739569700,6.577569580078125,-2.6352250576019287,-3.718515396118164,-5.1836957931518555,0.004612384829670191,0.9908667802810669,-0.13476577401161194,-0.7857860922813416,1.0089960098266602,-0.5763242244720459,0.6925167671476764,-0.6034946467492093,0.2615555801327572,-0.29631651819186666
1709730867749589800,6.58758984375,-2.3098349571228027,-3.7562060356140137,-5.045151233673096,-0.05075300112366676,0.9927124977111816,-0.10929998010396957,-0.796338677406311,1.02933669090271,-0.5837236046791077,0.6819501144299309,-0.6239715489719455,0.23666329468614333,-0.2993230405870172
1709730867759608800,6.59760888671875,-1.9493467807769775,-3.7572362422943115,-4.973046779632568,-0.10421323776245117,0.9909045100212097,-0.08513471484184265,-0.8277935981750488,1.0261547565460205,-0.5460297465324402,0.6718364877387771,-0.6424990221927326,0.21125256887505586,-0.3019985949550428
1709730867769628000,6.6076279296875,-1.5813530683517456,-3.7898738384246826,-4.890348434448242,-0.1558685451745987,0.9857783913612366,-0.06281805783510208,-0.871246337890625,1.0252232551574707,-0.5483421683311462,0.6623783998158379,-0.659008153560458,0.18520050138418945,-0.3044075906155439
1709730867779647700,6.617647705078125,-1.3607213497161865,-3.6828105449676514,-4.730754375457764,-0.20520105957984924,0.9778373837471008,-0.04155539721250534,-0.8666678667068481,0.9206154942512512,-0.5771731734275818,0.6533267072965573,-0.6737434651840091,0.15903472623915413,-0.30649969493455576
1709730867789666600,6.62766650390625,-1.13459312915802,-3.5033323764801025,-4.6490278244018555,-0.25199517607688904,0.9674961566925049,-0.02121114172041416,-0.8515662550926208,0.8155544996261597,-0.5765823125839233,0.6445111233755246,-0.6867514453842051,0.1332924661418767,-0.30856296345588274
1709730867799685600,6.637685546875,-0.863223671913147,-3.356818199157715,-4.480167388916016,-0.2964823246002197,0.9550361037254333,-0.002101167570799589,-0.7990071773529053,0.7494317293167114,-0.6797072291374207,0.6359872378684125,-0.6980583547648164,0.10799976637875117,-0.310758603223895
1709730867809705700,6.647705810546875,-0.5729060769081116,-3.248689651489258,-4.218368053436279,-0.3376321792602539,0.9411556124687195,0.015192657709121704,-0.6477956771850586,0.6298588514328003,-0.8466439247131348,0.6282576210579438,-0.7075695150249812,0.08331692591761862,-0.3125637545160861
1709730867819724800,6.657724853515625,-0.34729692339897156,-3.1459875106811523,-3.9174230098724365,-0.3750155568122864,0.9265030026435852,0.030915603041648865,-0.5258481502532959,0.5685837864875793,-0.9350597858428955,0.6213700709357116,-0.7154832786334459,0.0595103307378298,-0.3137539755839349
1709730867829743900,6.667743896484375,-0.1517316699028015,-3.093777656555176,-3.626939535140991,-0.40851491689682007,0.911621630191803,0.045407529920339584,-0.4442988634109497,0.6534113883972168,-0.9296389818191528,0.6153127505600076,-0.7220513860478506,0.03668187760848517,-0.3141442344252203
1709730867839763700,6.677763671875,0.059675104916095734,-3.0145905017852783,-3.322629928588867,-0.4384121894836426,0.8968448638916016,0.058858200907707214,-0.3551822006702423,0.7124233841896057,-0.9328663349151611,0.6100540358294793,-0.7274692781998012,0.01474953957360855,-0.31369588276506216
1709730867849782800,6.68778271484375,0.3712556064128876,-2.9000909328460693,-2.9595513343811035,-0.4644748866558075,0.8827954530715942,0.07025350630283356,-0.2754085659980774,0.7598285675048828,-0.9509296417236328,0.6060127263602458,-0.731498320117058,-0.0060796539361164265,-0.31244514676359825
1709730867859801900,6.6978017578125,0.6013658046722412,-2.7614309787750244,-2.72894024848938,-0.4872909486293793,0.869615375995636,0.07948119938373566,-0.19015362858772278,0.8259415030479431,-0.9269695281982422,0.6031447603217439,-0.7342153392113681,-0.025854144451769836,-0.3106059916784237
1709730867869821700,6.70782177734375,0.7865583300590515,-2.5220539569854736,-2.4827165603637695,-0.5076004862785339,0.8572207093238831,0.08668729662895203,-0.11932218074798584,0.8757352828979492,-0.8675099611282349,0.6011951310229063,-0.7357737226650749,-0.044504809617632105,-0.30857877525520455
1709730867879840800,6.7178408203125,0.9724762439727783,-2.1999826431274414,-2.255370616912842,-0.525669276714325,0.8457716107368469,0.09133671224117279,-0.06811124086380005,0.8605272769927979,-0.7659276723861694,0.6001982371088267,-0.7361121020089051,-0.06170355378373459,-0.30674713235422296
1709730867889859600,6.727859619140625,1.0335235595703125,-1.8253117799758911,-2.0649096965789795,-0.5419991612434387,0.8351483941078186,0.0936180055141449,-0.048775434494018555,0.7834277153015137,-0.6841940879821777,0.5999021604137881,-0.7354168710190504,-0.07727244204424609,-0.3054643984369333
1709730867899879700,6.737879638671875,1.0377633571624756,-1.4432497024536133,-1.9043325185775757,-0.5569197535514832,0.8252284526824951,0.09401486814022064,-0.038417279720306396,0.6464208960533142,-0.6023155450820923,0.5999974636425935,-0.7339729313492966,-0.09105585432437177,-0.3049521020176262
1709730867909898800,6.747898681640625,1.0265833139419556,-1.0863767862319946,-1.768110990524292,-0.5708453059196472,0.8158103227615356,0.0926784798502922,-0.023927032947540283,0.48834317922592163,-0.507900595664978,0.6003559937388055,-0.7319118269680139,-0.10317130152063181,-0.3053416232438908
1709730867919917800,6.757917724609375,0.9799695611000061,-0.7866838574409485,-1.6094281673431396,-0.583746612071991,0.8069406151771545,0.08992841094732285,-0.002694547176361084,0.4068809747695923,-0.468392014503479,0.6009236957849703,-0.7294074387557322,-0.11370573026805289,-0.30647459294896634
1709730867929938000,6.76793798828125,0.9903854727745056,-0.5332161784172058,-1.3772047758102417,-0.5952170491218567,0.7989626526832581,0.08588268607854843,0.02536219358444214,0.42683714628219604,-0.4678100347518921,0.6018228043791057,-0.7265637683497747,-0.1226639120093835,-0.3080068206032994
1709730867939956700,6.777956787109375,0.9495229721069336,-0.3249279260635376,-1.1360992193222046,-0.6048548817634583,0.7922344207763672,0.0807185098528862,0.0333673357963562,0.4739704728126526,-0.43763673305511475,0.6031414485756013,-0.7235011318681497,-0.1300206371684908,-0.3096147104590156
1709730867949975800,6.787975830078125,0.8641065955162048,-0.09784951061010361,-0.942028820514679,-0.6128513216972351,0.7866506576538086,0.07479371130466461,0.030286014080047607,0.4857034683227539,-0.34592700004577637,0.6046922257027859,-0.7203844577226379,-0.1358053319720176,-0.31136880375645914
1709730867959995600,6.79799560546875,0.7570621967315674,0.13159112632274628,-0.7596787214279175,-0.6195650100708008,0.7819634675979614,0.06835542619228363,0.009060859680175781,0.47383493185043335,-0.23595786094665527,0.6062650027471512,-0.7173268576738708,-0.1400710206524449,-0.31347265360983745
1709730867970014700,6.8080146484375,0.6835450530052185,0.3055759072303772,-0.6316214203834534,-0.6251128315925598,0.7781241536140442,0.061293795704841614,-0.01847243309020996,0.4629189968109131,-0.14616310596466064,0.6079383863131255,-0.7142768979791343,-0.14302241170986063,-0.3158545410599128
1709730867980033800,6.81803369140625,0.5460452437400818,0.43241187930107117,-0.534808337688446,-0.6298613548278809,0.7748147249221802,0.05419180542230606,-0.04686594009399414,0.4323537349700928,-0.1022874191403389,0.609467601135648,-0.7113982571909916,-0.1449428269698467,-0.31851741314903753
1709730867990053600,6.8280537109375,0.4240538775920868,0.5051319003105164,-0.43774089217185974,-0.6338792443275452,0.7719783186912537,0.04740148037672043,-0.06376796960830688,0.4199315309524536,-0.0902327299118042,0.6107727168772978,-0.7087881867768248,-0.1460138578304332,-0.32133482563972326
1709730868000072700,6.83807275390625,0.28211432695388794,0.574407160282135,-0.35456955432891846,-0.6371750831604004,0.7696124315261841,0.04129127785563469,-0.06674349308013916,0.4447735548019409,-0.1185007095336914,0.611763245835995,-0.7065620954702329,-0.14634084993829757,-0.3241917193503875
1709730868010091800,6.848091796875,0.20227618515491486,0.642152726650238,-0.2697151303291321,-0.6398120522499084,0.7677105665206909,0.035513728857040405,-0.07275819778442383,0.4750720262527466,-0.13638949394226074,0.6125578859548113,-0.7045934800808876,-0.14596195551333685,-0.3271331527393413
1709730868020112000,6.85811181640625,0.024832967668771744,0.6455394625663757,-0.22269222140312195,-0.6419110894203186,0.7661749720573425,0.030437961220741272,-0.07976871728897095,0.4604182243347168,-0.14202535152435303,0.6130521225942451,-0.7029798291869894,-0.14504599407703098,-0.3300731922137423
1709730868030131000,6.868130859375,-0.16710424423217773,0.6759054660797119,-0.18906502425670624,-0.6436707973480225,0.7648354172706604,0.026745006442070007,-0.08357846736907959,0.4687768220901489,-0.16747665405273438,0.6129289982466575,-0.7019606361453506,-0.14360977991104326,-0.3330853299058253
1709730868040150500,6.878150634765625,-0.21033453941345215,0.7033957242965698,-0.15772786736488342,-0.6451975107192993,0.763645589351654,0.02379016764461994,-0.10947179794311523,0.4869191646575928,-0.1830003261566162,0.6124377686390844,-0.7012789477896725,-0.14178477186948032,-0.3361920555348926
1709730868050169600,6.888169677734375,-0.22062286734580994,0.7472211122512817,-0.09190890938043594,-0.6463380455970764,0.7627690434455872,0.02075018920004368,-0.14104604721069336,0.5044733881950378,-0.22935307025909424,0.6119747047335825,-0.7006238948537702,-0.13964688403759956,-0.3392814130989649
1709730868060189400,6.898189453125,-0.24407599866390228,0.8036769032478333,-0.014891354367136955,-0.6468971967697144,0.7623758316040039,0.01752358116209507,-0.12870705127716064,0.5104359984397888,-0.29073214530944824,0.6115954033112528,-0.6999835747830223,-0.1370575991738892,-0.3423291923845437
1709730868070209500,6.90820947265625,-0.21853016316890717,0.850318193435669,0.07999095320701599,-0.6468060612678528,0.7625271081924438,0.013936678878962994,-0.13004934787750244,0.4828341603279114,-0.33019018173217773,0.6113969617640989,-0.6992884262149183,-0.1340299833149717,-0.3452903074331392
1709730868080228400,6.918228271484375,-0.2803266942501068,0.8965794444084167,0.21349173784255981,-0.645796000957489,0.763442873954773,0.010130957700312138,-0.1276567578315735,0.46459972858428955,-0.3668966293334961,0.6113791301752737,-0.6986103551597682,-0.13041875119496255,-0.3480662726550395
1709730868090247400,6.928247314453125,-0.35091644525527954,0.9414618015289307,0.3239061236381531,-0.6438224911689758,0.7651461958885193,0.006635251455008984,-0.10443806648254395,0.445837140083313,-0.397397518157959,0.6113232867186135,-0.698150321868813,-0.12611008634832332,-0.3506654573999111
1709730868100267500,6.938267578125,-0.29785534739494324,0.9730274677276611,0.45526522397994995,-0.6409081816673279,0.7676117420196533,0.0030052191577851772,-0.057715535163879395,0.35319215059280396,-0.44364845752716064,0.6114344679668402,-0.6977145509967329,-0.1212312457193546,-0.35305143436495084
1709730868110286600,6.94828662109375,-0.21059180796146393,0.982132077217102,0.6055652499198914,-0.6368300914764404,0.771003246307373,-0.0013082959922030568,0.011204421520233154,0.24468284845352173,-0.5070992112159729,0.612078507230217,-0.6970673373431844,-0.11594386235492433,-0.3549848070045523
1709730868120305700,6.9583056640625,-0.11053231358528137,0.9953823685646057,0.73320072889328,-0.6315987706184387,0.7752697467803955,-0.006336205173283815,0.08122938871383667,0.21165364980697632,-0.5244101285934448,0.6132618308468325,-0.6961844496311829,-0.11026835177276086,-0.35648025074032236
1709730868130325200,6.9683251953125,0.01788504607975483,0.9961378574371338,0.8405601978302002,-0.6253661513328552,0.7802353501319885,-0.012255250476300716,0.11859118938446045,0.15103918313980103,-0.5020268559455872,0.6150474481226291,-0.6949663550333259,-0.10437499731558585,-0.3575532819915837
1709730868140344300,6.97834423828125,0.16013886034488678,0.997242271900177,0.9226374626159668,-0.6182813048362732,0.7857236862182617,-0.019149353727698326,0.15029418468475342,0.07993799448013306,-0.48927342891693115,0.6174355918485465,-0.6933598355053338,-0.09837408994121406,-0.35825696054027867
1709730868150363400,6.98836328125,0.34000927209854126,1.009157419204712,0.9706345796585083,-0.6105632781982422,0.7914968132972717,-0.027301877737045288,0.1686992049217224,0.03613990545272827,-0.46397000551223755,0.6204847768389963,-0.6912350119315116,-0.09242953814630453,-0.3586776004611347
1709730868160383500,6.998383544921875,0.472201943397522,1.042559027671814,0.9941350817680359,-0.6024110913276672,0.797336995601654,-0.036806974560022354,0.17067885398864746,-0.023121297359466553,-0.4171724319458008,0.6241348166953256,-0.6885496072280237,-0.0865791607157739,-0.35896973313856273
1709730868170402600,7.008402587890625,0.5861413478851318,1.0820297002792358,0.9901542067527771,-0.5940011143684387,0.803066611289978,-0.04739990457892418,0.17012715339660645,-0.06872212886810303,-0.35602712631225586,0.6281753269829485,-0.6854025530733069,-0.08076748942495321,-0.3592989264657452
1709730868180421400,7.01842138671875,0.6503728032112122,1.0938674211502075,0.975899338722229,-0.5854807496070862,0.8085458874702454,-0.058873824775218964,0.15640348196029663,-0.11190581321716309,-0.27254700660705566,0.6325066131564409,-0.6818549529229943,-0.07507936480645884,-0.3596837845825621
1709730868190441500,7.02844140625,0.7327297329902649,1.0710188150405884,0.9534153342247009,-0.5769380927085876,0.813713014125824,-0.07080625742673874,0.15370506048202515,-0.13571929931640625,-0.2039129137992859,0.6369876304462844,-0.6780524687304463,-0.06958248744078101,-0.36006927457448157
1709730868200460500,7.03846044921875,0.8314930200576782,1.0122815370559692,0.9365569949150085,-0.5684186816215515,0.8185224533081055,-0.08319516479969025,0.15031254291534424,-0.1336621642112732,-0.1528581976890564,0.6416916561629246,-0.6739789184921438,-0.06445801273022371,-0.36031865649166367
1709730868210479600,7.048479736328125,0.8716471195220947,0.9412874579429626,0.9089714884757996,-0.5599266290664673,0.822990894317627,-0.09575149416923523,0.1291099190711975,-0.12168163061141968,-0.10578650236129761,0.6465446973036332,-0.6697437216354801,-0.059729384931796324,-0.36035513611436243
1709730868220499500,7.05849951171875,0.8038148283958435,0.8466275334358215,0.877944827079773,-0.5516283512115479,0.8271043300628662,-0.10772547870874405,0.11177843809127808,-0.11581581830978394,-0.058366358280181885,0.6512440098657517,-0.6656370922702971,-0.05535813748172239,-0.3602000527125442
1709730868230518300,7.068518310546875,0.7381889224052429,0.7533876299858093,0.8108507394790649,-0.5437219142913818,0.8308594822883606,-0.1184864342212677,0.09680724143981934,-0.1075318455696106,-0.002820834517478943,0.6555273193985163,-0.6619087366460003,-0.05131867848853785,-0.35989880860589624
1709730868240537300,7.078537353515625,0.7326772212982178,0.6697494387626648,0.7690955996513367,-0.5362651348114014,0.8342170715332031,-0.12845906615257263,0.06579083204269409,-0.09891122579574585,0.048213183879852295,0.6595521019243978,-0.6584042155565444,-0.047690243702304104,-0.35947275141715235
1709730868250557400,7.088557373046875,0.7179710268974304,0.6161988377571106,0.735750675201416,-0.5291069746017456,0.8372668623924255,-0.137950137257576,0.04340440034866333,-0.10551631450653076,0.06508952379226685,0.6634414350614805,-0.6550219249029517,-0.044398268482653755,-0.35891596187723096
1709730868260576500,7.098576416015625,0.6634611487388611,0.5747808814048767,0.6791521310806274,-0.5222976207733154,0.8400120139122009,-0.14691895246505737,0.027149856090545654,-0.12945586442947388,0.08074164390563965,0.6671170152957703,-0.6517909035114464,-0.04134176120354343,-0.3583496120308312
1709730868270595300,7.10859521484375,0.5797619223594666,0.5301064252853394,0.6099504232406616,-0.516044557094574,0.8424087166786194,-0.15506663918495178,-0.005882382392883301,-0.15524441003799438,0.10568930208683014,0.6704171920544203,-0.6488321809674183,-0.038515992291759074,-0.35787448843001857
1709730868280615400,7.118615478515625,0.4555923640727997,0.48860713839530945,0.524219274520874,-0.5104411244392395,0.8444960117340088,-0.16209985315799713,-0.0368000864982605,-0.1505873203277588,0.11952795088291168,0.6732230260178619,-0.6462673190279145,-0.035897388592941226,-0.3575202031611926
1709730868290634500,7.128634521484375,0.29890474677085876,0.44430914521217346,0.4289928674697876,-0.5056171417236328,0.8463163375854492,-0.1676316261291504,-0.05908018350601196,-0.15379607677459717,0.13304001092910767,0.6753662840423784,-0.644255988015179,-0.03344264181192909,-0.35734639140286556
1709730868300654300,7.138654296875,0.1932544708251953,0.3882501423358917,0.3409799337387085,-0.5016514658927917,0.8478338718414307,-0.17182524502277374,-0.0683407187461853,-0.18758589029312134,0.13701997697353363,0.6769149720175179,-0.6427377004189375,-0.031234993695570024,-0.35734996542674075
1709730868310673400,7.14867333984375,0.12144738435745239,0.3102373778820038,0.26438236236572266,-0.49848031997680664,0.8490763306617737,-0.17489121854305267,-0.06827694177627563,-0.2038736343383789,0.12504082918167114,0.6779977818361765,-0.6416334373215147,-0.029341473710983324,-0.3574419569355611
1709730868320692500,7.1586923828125,0.04419628158211708,0.21832901239395142,0.1860222965478897,-0.49608591198921204,0.850055992603302,-0.1769283413887024,-0.06078362464904785,-0.2008097767829895,0.12222571671009064,0.6787128293323523,-0.6409050577305834,-0.027866350364613834,-0.35750958359760204
1709730868330712300,7.16871240234375,-0.0398339107632637,0.1320451945066452,0.1010642796754837,-0.4945608377456665,0.8507577776908875,-0.17782245576381683,-0.052802443504333496,-0.20936983823776245,0.118435338139534,0.6790031246227035,-0.6406007825552297,-0.026821840416084663,-0.35758355700767896
1709730868340731400,7.1787314453125,-0.0905010849237442,0.046454668045043945,0.03370414674282074,-0.49388551712036133,0.8511970639228821,-0.17759716510772705,-0.04671812057495117,-0.22897416353225708,0.11439533531665802,0.6788823592169951,-0.6407143578870919,-0.02620163319145684,-0.3576553718540041
1709730868350750500,7.18875048828125,-0.1377418339252472,-0.006849565543234348,-0.0343627892434597,-0.4938550591468811,0.8514069318771362,-0.17667366564273834,-0.043605297803878784,-0.24946290254592896,0.12410719692707062,0.6785057547126331,-0.6410855334643227,-0.02593272301148686,-0.3577245466653009
1709730868360770600,7.1987705078125,-0.18635624647140503,-0.045045156031847,-0.0835452526807785,-0.4944051504135132,0.8513932228088379,-0.17519496381282806,-0.034220367670059204,-0.22476047277450562,0.11187107861042023,0.6778900880258959,-0.6416619792562706,-0.02593116247997225,-0.357858360654129
1709730868370789600,7.20878955078125,-0.2064090520143509,-0.06372440606355667,-0.1277630478143692,-0.4953932762145996,0.851208508014679,-0.17329111695289612,-0.020445436239242554,-0.23284602165222168,0.08231830596923828,0.6770723066463653,-0.6423965979485078,-0.02609691328123111,-0.35807651578635025
1709730868380808400,7.218808349609375,-0.22900384664535522,-0.0961579829454422,-0.15991166234016418,-0.49676546454429626,0.8508742451667786,-0.17098897695541382,-0.0034940242767333984,-0.2357313632965088,0.051405906677246094,0.676080978021916,-0.6432782825994424,-0.026430287021997026,-0.3583421378693441
1709730868390828300,7.228828369140625,-0.2453519105911255,-0.13112613558769226,-0.1787886917591095,-0.49838176369667053,0.8504409193992615,-0.1684223860502243,0.013625234365463257,-0.1833113431930542,0.011668920516967773,0.6750104328472628,-0.6442541113773527,-0.026934172315140135,-0.3585697423117828
1709730868400847400,7.238847412109375,-0.249145045876503,-0.16710704565048218,-0.20638036727905273,-0.500275731086731,0.8498944640159607,-0.16554076969623566,0.02595621347427368,-0.15258300304412842,-0.013047993183135986,0.6738313818778469,-0.6453428783563178,-0.02760773002298279,-0.35877811812069577
1709730868410866400,7.248866455078125,-0.18675199151039124,-0.2121782749891281,-0.23086440563201904,-0.5024634003639221,0.8491511344909668,-0.16270506381988525,0.04192262887954712,-0.10855048894882202,-0.0321953147649765,0.6726946462882973,-0.6463988192297894,-0.028566321570132835,-0.3589352189508582
1709730868420886500,7.258886474609375,-0.13644060492515564,-0.2466646283864975,-0.25435829162597656,-0.5048976540565491,0.8481858968734741,-0.16018520295619965,0.0440211296081543,-0.049876511096954346,-0.059693872928619385,0.6717082890779678,-0.6473151241183258,-0.029841705396970175,-0.35902746344885234
1709730868430905300,7.2689052734375,-0.11700698733329773,-0.27114635705947876,-0.2869553565979004,-0.507605791091919,0.84701007604599,-0.15783023834228516,0.043753862380981445,0.00449138879776001,-0.08325855433940887,0.670786291085477,-0.6481517138787406,-0.03137254684606856,-0.35911132423470415
1709730868440924400,7.27892431640625,-0.09191948175430298,-0.28115078806877136,-0.3176637589931488,-0.5106214284896851,0.8456270694732666,-0.1555013358592987,0.03619515895843506,0.0650022029876709,-0.09903042018413544,0.6698425330576421,-0.6489637477092736,-0.033096582099701816,-0.359251536093724
1709730868450944500,7.288944580078125,-0.03129208832979202,-0.26279574632644653,-0.3148479759693146,-0.5137338042259216,0.8440934419631958,-0.15357162058353424,0.016510844230651855,0.14041906595230103,-0.1238483339548111,0.6690225244631253,-0.6496104013483045,-0.034935905847655616,-0.35943698975343813
1709730868460963600,7.298963623046875,0.0389527790248394,-0.23612764477729797,-0.2948005199432373,-0.5167115926742554,0.842496931552887,-0.1523418128490448,0.009997725486755371,0.17639338970184326,-0.14785949885845184,0.6684494131413657,-0.6499812672820485,-0.03678918501220598,-0.35964742416033274
1709730868470982400,7.308982421875,0.04579896852374077,-0.1956758350133896,-0.2576241195201874,-0.5193783640861511,0.8409907221794128,-0.15159521996974945,0.008697152137756348,0.2005438208580017,-0.14515763521194458,0.6680555812986194,-0.6501694300735098,-0.03849812326835797,-0.35986051999488683
1709730870595085600,9.43308544921875,-4.598767280578613,-1.4835125207901,-7.016572952270508,0.8761411309242249,-0.4798622727394104,0.04592765495181084,-1.5767635107040405,0.7606391310691833,0.9259963035583496,0.6895819849809046,0.38255430970249155,0.6136904976134222,-0.03889815498993868
1709730870605105700,9.443105712890626,-5.046270847320557,-1.820999026298523,-7.337100505828857,0.9088529348373413,-0.4170098304748535,0.00945227686315775,-1.6152737140655518,0.967470645904541,0.962944746017456,0.7018348563737905,0.34315651848384854,0.6220689207544354,-0.0519786287797161
1709730870615124700,9.453124755859376,-5.454530715942383,-2.1109750270843506,-7.654627323150635,0.9373711347579956,-0.3471297323703766,-0.028925912454724312,-1.613274335861206,1.2031172513961792,0.9860792756080627,0.7142853691315101,0.30043701660227007,0.6287087106972544,-0.06526535109533861
1709730870625143600,9.4631435546875,-5.7591047286987305,-2.3514325618743896,-7.917911529541016,0.9604165554046631,-0.2702655792236328,-0.06750642508268356,-1.5846991539001465,1.4166278839111328,0.9497849941253662,0.7263256080765089,0.2547544199832833,0.6335195114557011,-0.07876927204843047
1709730870635163600,9.47316357421875,-6.153628826141357,-2.523185968399048,-8.082525253295898,0.9766615629196167,-0.18741951882839203,-0.10491105914115906,-1.5748517513275146,1.5238453149795532,0.8988258838653564,0.737562559950028,0.20639674926463367,0.6363527728790368,-0.0919627543924551
1709730870645182700,9.4831826171875,-6.488244533538818,-2.6610782146453857,-8.268157958984375,0.9852409362792969,-0.09924773871898651,-0.13946488499641418,-1.5942038297653198,1.5609328746795654,0.8820644617080688,0.7475263569665855,0.15553492840011598,0.6372412734988704,-0.10457983806238713
1709730870655201800,9.493201904296875,-6.75337553024292,-2.7967817783355713,-8.455744743347168,0.9854323863983154,-0.006337590049952269,-0.16994984447956085,-1.615940809249878,1.6454672813415527,0.8420079946517944,0.7558867058734342,0.10235823232806922,0.6360407771717793,-0.11666301084752638
1709730870665221600,9.5032216796875,-6.8149495124816895,-2.9517006874084473,-8.601946830749512,0.9765943288803101,0.09006203711032867,-0.19532622396945953,-1.5900129079818726,1.802592396736145,0.7330155372619629,0.7623149155375115,0.047634312961692314,0.6325091777276013,-0.12860424410406912
1709730870675240400,9.513240478515625,-6.646455764770508,-3.1858086585998535,-8.687225341796875,0.9582067728042603,0.1878904402256012,-0.21572428941726685,-1.5305181741714478,1.9018465280532837,0.5544389486312866,0.7668387597828336,-0.007551330416586932,0.6261635817280277,-0.14078520678249765
1709730870685259500,9.523259521484375,-6.8090057373046875,-3.265536069869995,-8.619463920593262,0.9304349422454834,0.28490060567855835,-0.2304835170507431,-1.465514898300171,1.9141807556152344,0.4196010231971741,0.7693748738448102,-0.06270523256044973,0.617111248691765,-0.1526572053144021
1709730870695279600,9.533279541015625,-6.75267219543457,-3.255382776260376,-8.542768478393555,0.8941860795021057,0.37942084670066833,-0.23763681948184967,-1.4236812591552734,1.9008526802062988,0.47571974992752075,0.7694823889610842,-0.11780859600548944,0.6060550510623586,-0.16344848574355805
1709730870705298700,9.543298583984376,-6.746250629425049,-3.2476158142089844,-8.393207550048828,0.8504078984260559,0.4695710837841034,-0.237296462059021,-1.3688862323760986,1.8126707077026367,0.5042032599449158,0.7671971742595557,-0.1720032380407241,0.5930991941677205,-0.17336922978841246
1709730870715317800,9.55331787109375,-6.568866729736328,-3.276479959487915,-8.382773399353027,0.7997271418571472,0.5545436143875122,-0.23003974556922913,-1.2305588722229004,1.6458959579467773,0.3588239848613739,0.7626359139954627,-0.22498860674665977,0.5782389233921661,-0.1827746302065834
1709730870725337900,9.563337890625,-6.388996601104736,-3.3394243717193604,-8.344459533691406,0.7424401044845581,0.6338413953781128,-0.21685941517353058,-1.0773093700408936,1.4375393390655518,0.15832674503326416,0.7560615944792759,-0.2767755585312924,0.5612179472183734,-0.1918351316030584
1709730870735356700,9.573356689453124,-5.720594882965088,-3.278531551361084,-8.208977699279785,0.6798588633537292,0.7055760025978088,-0.1998869776725769,-0.975223183631897,1.345754623413086,0.07542109489440918,0.7479400176151743,-0.32574710266255896,0.5421672610156892,-0.20131922862117033
1709730870745376500,9.58337646484375,-5.101963043212891,-3.1859538555145264,-8.087529182434082,0.6135179400444031,0.7687197327613831,-0.18073733150959015,-0.9749070405960083,1.3014402389526367,0.12109076976776123,0.7386583264853821,-0.3709821221242699,0.5215396460813191,-0.21154830444716763
1709730870755395600,9.5933955078125,-4.589231014251709,-3.278719186782837,-7.943585395812988,0.5439947247505188,0.8234968781471252,-0.16100578010082245,-0.984241247177124,1.2520341873168945,0.12118041515350342,0.7287319940514176,-0.4126896616271163,0.49918368895108994,-0.22237963270155744
1709730870765414700,9.60341455078125,-4.200304985046387,-3.3858296871185303,-7.858635425567627,0.47187599539756775,0.8703874945640564,-0.14056611061096191,-0.9674813747406006,1.2010847330093384,0.02319556474685669,0.7183261519331254,-0.4517697019257133,0.4749958778655745,-0.2330036052353454
1709730870775434800,9.613434814453125,-3.913546085357666,-3.324388265609741,-7.6692094802856445,0.3981517553329468,0.9095381498336792,-0.11922954767942429,-0.9391673803329468,1.2223589420318604,-0.08061474561691284,0.7073418127015765,-0.48820402510908834,0.449490886142214,-0.24347980624598678
1709730873831339500,12.669339599609375,-1.6693150997161865,-0.015021901577711105,-1.6829955577850342,0.44259732961654663,-0.8185495138168335,0.3661760091781616,-0.4234169125556946,0.00151747465133667,0.11873319745063782,0.5502052294991986,0.627388088138906,0.5380262025089007,0.11910676426737718
1709730873841359600,12.679359619140625,-1.908274531364441,-0.022351345047354698,-1.9668539762496948,0.4576454758644104,-0.8167338967323303,0.35143473744392395,-0.4907723367214203,0.008796274662017822,0.1882229447364807,0.5569261593959779,0.6174975600981444,0.5425994205458996,0.11881029847742228
1709730873851378700,12.689378662109375,-2.0696358680725098,-0.008798785507678986,-2.273070812225342,0.47497186064720154,-0.8137313723564148,0.33502790331840515,-0.5779990553855896,-0.020009100437164307,0.24466904997825623,0.5643514509794652,0.6061055106235632,0.5478595315236485,0.1182952400161021
1709730873861397800,12.699397705078125,-2.1019022464752197,-0.08652675896883011,-2.622936487197876,0.4950196444988251,-0.808657169342041,0.3178509473800659,-0.68277907371521,-0.055890560150146484,0.32832834124565125,0.5721859080252825,0.5934310722409203,0.5538637290661421,0.11695240861781513
1709730873871417600,12.70941748046875,-2.1562304496765137,-0.15931202471256256,-2.998688220977783,0.5180343985557556,-0.8010045289993286,0.30005449056625366,-0.7804244756698608,-0.007589399814605713,0.39220646023750305,0.5804131640198913,0.5795252868246119,0.5605155557060263,0.11442710397092903
1709730873881436700,12.719436767578125,-2.1384613513946533,-0.24785968661308289,-3.367884635925293,0.544039785861969,-0.7903134226799011,0.2818262577056885,-0.8492611646652222,0.1328272819519043,0.40333929657936096,0.5889439505402778,0.5643199592588309,0.5678521878442985,0.11059900909967528
1709730873891455700,12.729455810546876,-2.1843268871307373,-0.37786296010017395,-3.712268829345703,0.572663426399231,-0.7763915657997131,0.26319828629493713,-0.8929758071899414,0.2300657033920288,0.3599250614643097,0.5977467308721677,0.5479785869837628,0.5756028237909769,0.10535629691067842
1709730873901475600,12.7394755859375,-2.3332834243774414,-0.4669809639453888,-4.157362461090088,0.60396409034729,-0.7589603662490845,0.24332502484321594,-0.9178677797317505,0.26776450872421265,0.3545908033847809,0.6070855856130406,0.5299641893543379,0.5837811867812258,0.09891817700342671
1709730873911494700,12.74949462890625,-2.400240421295166,-0.5970427989959717,-4.577098369598389,0.6379905939102173,-0.737285852432251,0.22221091389656067,-0.9731498956680298,0.2573053240776062,0.3421812057495117,0.6169198486379063,0.510044345783131,0.592418960353908,0.09112880735211373
1709730873921514800,12.7595146484375,-2.4473299980163574,-0.7476998567581177,-4.961324214935303,0.6740139126777649,-0.711067259311676,0.20022279024124146,-1.0171992778778076,0.20465844869613647,0.3026917278766632,0.6270510988325931,0.4885389538845686,0.6011997074072446,0.08182763164458583
1709730873931533600,12.769533447265625,-2.5519490242004395,-0.908616304397583,-5.331403732299805,0.7114909291267395,-0.6800135970115662,0.17709380388259888,-1.0502207279205322,0.22058671712875366,0.35350024700164795,0.6374930326616879,0.4653193522020385,0.6099383591099375,0.071103826345533
1709730873941552600,12.779552734375,-2.678014039993286,-1.1124545335769653,-5.582148551940918,0.7494052648544312,-0.6443452835083008,0.15235213935375214,-1.111023187637329,0.3149842619895935,0.4351876974105835,0.6483136509547489,0.4404154365220454,0.6182315986060802,0.05927440149579451
1709730873951572700,12.78957275390625,-2.883676052093506,-1.3299596309661865,-5.830812454223633,0.7867966294288635,-0.6042969226837158,0.1256035566329956,-1.1429826021194458,0.4221374988555908,0.5265724658966064,0.6595654377425921,0.4138947661821337,0.625693937097919,0.0466006938672334
1709730873961591800,12.799591796875,-3.20141863822937,-1.5401737689971924,-6.1424126625061035,0.8232883810997009,-0.5594035983085632,0.0962488204240799,-1.1773686408996582,0.567094087600708,0.6105993986129761,0.6713879892023322,0.3851740620963448,0.6322699984319224,0.033372696692552835
1709730873971610600,12.809610595703125,-3.4575870037078857,-1.774661898612976,-6.398935794830322,0.8582269549369812,-0.5092088580131531,0.06444261223077774,-1.2094385623931885,0.7467882037162781,0.6535598039627075,0.6836620719020896,0.3541095127666456,0.637830510276417,0.019618339606268895
1709730873981630500,12.81963037109375,-3.7232158184051514,-1.9942690134048462,-6.638760089874268,0.8905850648880005,-0.4537849426269531,0.030620835721492767,-1.1961727142333984,0.8650550842285156,0.6043126583099365,0.6961757037915404,0.32094047131575043,0.6421118533128967,0.00539081582288306
1709730873991649500,12.8296494140625,-4.0869669914245605,-2.197904348373413,-6.8829665184021,0.9195435047149658,-0.39295777678489685,-0.00494324741885066,-1.1774015426635742,0.9373302459716797,0.5911250114440918,0.7087954652096345,0.2853845252167967,0.6450457728945487,-0.008992190193607303
1709730874001668600,12.839668701171876,-4.428838729858398,-2.420305013656616,-7.082490921020508,0.9442116618156433,-0.3266679048538208,-0.04186610132455826,-1.188169002532959,1.0509263277053833,0.5966757535934448,0.7213803832293817,0.24731187756037823,0.6464547817554336,-0.023314821338409005
1709730874011688700,12.849688720703124,-4.792710781097412,-2.6642439365386963,-7.225541114807129,0.9635447263717651,-0.2554224729537964,-0.07963218539953232,-1.180631399154663,1.2043054103851318,0.6025509834289551,0.7337701995699623,0.20696194608108132,0.6460268264919837,-0.037384322860603975
1709730874021707500,12.85970751953125,-5.039863586425781,-2.9056711196899414,-7.347973823547363,0.9766907691955566,-0.17963866889476776,-0.11749697476625443,-1.14955735206604,1.3581206798553467,0.6097303032875061,0.745749231733035,0.1645035456064944,0.6435760224037663,-0.05105699880319346
1709730881395823000,20.233822998046875,-5.283355236053467,-2.915841579437256,-7.2175703048706055,0.9755657315254211,0.17065362632274628,-0.1383805274963379,-0.7456004023551941,1.0982978343963623,0.20722830295562744,0.7422934159170855,0.004307155810093868,0.6563468473606842,-0.1348737886049746
1709730881405842200,20.24384228515625,-5.278665542602539,-2.8459575176239014,-7.196684837341309,0.9561730623245239,0.24826885759830475,-0.15522931516170502,-0.6957815885543823,1.114569902420044,0.1826494187116623,0.746195048006278,-0.04096989051786787,0.6486191549073013,-0.1442493629482197
1709730881415861200,20.253861328125,-5.3474884033203125,-2.7759485244750977,-7.111813545227051,0.931102454662323,0.3245370090007782,-0.1665060669183731,-0.6627307534217834,1.151796579360962,0.22513043880462646,0.7482314193061017,-0.08605898276903853,0.6397974801823714,-0.15298039398503804
1709730881425881000,20.263881103515626,-5.121783256530762,-2.700514554977417,-7.0209808349609375,0.9008280634880066,0.3983873128890991,-0.17261643707752228,-0.5832620859146118,1.1805616617202759,0.24347835779190063,0.7485300782575435,-0.13040914084768832,0.6298295290097196,-0.16127934475271077
1709730881435900000,20.27389990234375,-4.8164544105529785,-2.671391010284424,-6.868001937866211,0.8659729957580566,0.4685346186161041,-0.17483194172382355,-0.49049991369247437,1.1332567930221558,0.19247116148471832,0.7473941105441863,-0.1729382426168385,0.6186084330393924,-0.16975889337020017
1709730881445919000,20.2839189453125,-4.558299541473389,-2.6650028228759766,-6.722748756408691,0.8271552324295044,0.5344025492668152,-0.17386220395565033,-0.4357672929763794,1.0499022006988525,0.1791876256465912,0.7451097700890785,-0.2136700152701196,0.6061468626841771,-0.17816418929463704
1709730881455939000,20.29393896484375,-4.062114238739014,-2.6597471237182617,-6.5925469398498535,0.7848386764526367,0.5956760048866272,-0.1708749383687973,-0.4065733551979065,0.9873928427696228,0.18398232758045197,0.7419695344252306,-0.2522168009549328,0.5924096678201721,-0.18686533167009964
1709730881465958100,20.303958251953127,-3.5237605571746826,-2.683164119720459,-6.395785808563232,0.7396814227104187,0.6517412066459656,-0.1676449030637741,-0.3632165789604187,0.9179762005805969,0.11291171610355377,0.7384447659989696,-0.2878424727075259,0.5773424128991727,-0.1962697271340036
1709730881475977000,20.31397705078125,-3.319171667098999,-2.6965298652648926,-6.188748359680176,0.692543089389801,0.702526330947876,-0.16383205354213715,-0.3200607895851135,0.8633153438568115,0.06429906189441681,0.7345876606228102,-0.32104030695894004,0.5612638397991367,-0.20566249101442527
1709730881485996000,20.32399609375,-3.283325672149658,-2.7979419231414795,-6.080949306488037,0.6435368657112122,0.7488916516304016,-0.15818282961845398,-0.3484470844268799,0.8310186862945557,0.12119561433792114,0.7301537195859417,-0.3529943663555719,0.5443377292483033,-0.21439937542816076
1709730881496016100,20.33401611328125,-3.2052102088928223,-3.013054609298706,-6.009161949157715,0.5923637747764587,0.7913986444473267,-0.15097564458847046,-0.43710553646087646,0.8166946768760681,0.14908361434936523,0.7252981117246441,-0.3842822556867048,0.526155232186391,-0.2223300789542421
1709730881506035200,20.34403515625,-3.058593511581421,-3.1897997856140137,-5.795007228851318,0.5397253632545471,0.829542875289917,-0.14337116479873657,-0.4554358124732971,0.8099835515022278,0.01924099028110504,0.7204278159194036,-0.41435337977071157,0.5065823671756433,-0.22949820464908857
1709730881516054300,20.35405419921875,-3.1899516582489014,-3.293067693710327,-5.580502986907959,0.4870823323726654,0.8630903959274292,-0.1335141658782959,-0.38905981183052063,0.7953112125396729,-0.09135454893112183,0.7151708276382753,-0.4435122751785536,0.486353553413719,-0.23513376838075684
1709730881526073900,20.364073974609376,-3.224144458770752,-3.3144798278808594,-5.431776523590088,0.43436524271965027,0.8926329612731934,-0.1205550953745842,-0.3945854902267456,0.7531954646110535,-0.08874966204166412,0.7091459310428649,-0.4720425030508958,0.4657234447348575,-0.23956160634377047
1709730881536093000,20.374093017578126,-3.0828423500061035,-3.2145373821258545,-5.1966071128845215,0.3824406564235687,0.9179744124412537,-0.10517802834510803,-0.43868452310562134,0.6365910768508911,-0.0969550609588623,0.7024653477253425,-0.49932857680924914,0.4450639927441739,-0.2431699421846495
1709730881546112000,20.384112060546876,-2.8669307231903076,-3.0968356132507324,-5.006206035614014,0.3319632411003113,0.939111590385437,-0.08871328830718994,-0.4424673616886139,0.556631326675415,-0.003373444080352783,0.695439132714687,-0.5247419712421928,0.4246047786438415,-0.24641664099605134
1709730881556132000,20.394132080078126,-2.3661069869995117,-2.9740614891052246,-4.90531587600708,0.2824135422706604,0.9565042853355408,-0.07309167832136154,-0.5417823791503906,0.6089560389518738,0.08603119850158691,0.688515573729131,-0.5479205015216351,0.4040263430316166,-0.24998455299748037
1709730881566151200,20.404151123046876,-1.993638277053833,-3.0108695030212402,-4.747978210449219,0.23385226726531982,0.9704267978668213,-0.05987463518977165,-0.6814230680465698,0.7202165126800537,0.05274886637926102,0.682245323310935,-0.5686407176712163,0.3830279577739128,-0.25392641586251397
1709730881576170000,20.414169921875,-1.6107196807861328,-2.9901890754699707,-4.679947853088379,0.18616177141666412,0.981315553188324,-0.048618514090776443,-0.6720626354217529,0.7569962739944458,-0.1926533579826355,0.6766132453105705,-0.5874042565401639,0.3614512176698893,-0.25788338021839635
1709730884622040000,23.4600400390625,-3.9288241863250732,-2.412403106689453,-6.6375603675842285,0.897104024887085,-0.4044158458709717,0.17791099846363068,-1.186044454574585,0.6885650157928467,0.3759373426437378,0.639689619884106,0.36151838940495107,0.6769490058437443,-0.04291555530558926
1709730884632060000,23.470059814453126,-4.194601535797119,-2.496020555496216,-6.913603782653809,0.926607072353363,-0.34894663095474243,0.14012837409973145,-1.1970536708831787,0.7349939346313477,0.4122399091720581,0.6533620371345888,0.32469473807869814,0.6816432474700509,-0.05526337369777138
1709730884642079000,23.480078857421876,-4.332708358764648,-2.52111554145813,-7.172112464904785,0.9521558880805969,-0.2877828776836395,0.10286188870668411,-1.2137830257415771,0.7915059924125671,0.44051897525787354,0.6663154191093175,0.2856674879276002,0.6854378396637679,-0.06777159472551117
1709730884652098000,23.49009814453125,-4.514763832092285,-2.5586490631103516,-7.355229377746582,0.9728668928146362,-0.2214263677597046,0.06708872318267822,-1.1885954141616821,0.8432677388191223,0.44525575637817383,0.6782249175944711,0.24483737305404107,0.6881853111877158,-0.0804167415494438
1709730884662118000,23.500117919921873,-4.732922077178955,-2.642220973968506,-7.476595878601074,0.9880167841911316,-0.1508011817932129,0.032899029552936554,-1.1366219520568848,0.8820785880088806,0.4708852767944336,0.6891612463553901,0.2022448206776897,0.6895988304234657,-0.09277669830569156
1709730884672137000,23.510136962890623,-4.851846218109131,-2.6816604137420654,-7.583699703216553,0.9970570802688599,-0.07665861397981644,0.0009315742063336074,-1.0652332305908203,0.8797439336776733,0.4481956958770752,0.6989631066412337,0.15822927270748036,0.6895138028859885,-0.1048088064777311
1709730884682155800,23.52015576171875,-4.978605270385742,-2.6823501586914062,-7.676569938659668,0.9996124505996704,0.0003654236497823149,-0.027838222682476044,-0.9587493538856506,0.8443611264228821,0.3988405466079712,0.7073469117030798,0.11307954998151679,0.6879635922053542,-0.11653114088314824
1709730884692176000,23.53017578125,-4.961562633514404,-2.650514841079712,-7.769242286682129,0.9954383969306946,0.07964332401752472,-0.05253177136182785,-0.8561407923698425,0.856895387172699,0.3623921275138855,0.7140357044634494,0.06715626304419149,0.6849993794903994,-0.12813680303516248
1709730884702195000,23.54019482421875,-4.936330795288086,-2.603076934814453,-7.8158135414123535,0.9844225645065308,0.16010227799415588,-0.07266097515821457,-0.7863176465034485,0.8800283670425415,0.3448626399040222,0.7188883133016505,0.020955189465239995,0.6806103076358123,-0.1397504201893921
1709730884712214000,23.550214111328124,-4.715670585632324,-2.5696167945861816,-7.848630428314209,0.9666008949279785,0.2406240999698639,-0.08821986615657806,-0.7513604164123535,0.8855660557746887,0.34069186449050903,0.7219018296925277,-0.025011245195858664,0.6747329144350224,-0.1515509040815641
1709730888008562000,26.84656201171875,-3.279916763305664,-1.7834994792938232,-5.661983966827393,0.7804369330406189,-0.5847150683403015,0.22142024338245392,-0.9567674398422241,0.47289854288101196,0.28326427936553955,0.6227437035312856,0.4291146090757563,0.6531238579632085,0.03847524585015924
1709730888018581800,26.856581787109373,-3.6266098022460938,-1.8951990604400635,-5.864050388336182,0.8168525099754333,-0.5456150770187378,0.18723338842391968,-0.9487646818161011,0.5535801649093628,0.28678107261657715,0.6368765583868076,0.3996211428906077,0.6587257666980029,0.02777817452310386
1709730888028600800,26.866600830078124,-4.026650428771973,-2.0675013065338135,-6.097960948944092,0.851609468460083,-0.502098023891449,0.15053080022335052,-0.9297952651977539,0.6689069867134094,0.36961090564727783,0.6514851864923692,0.3676556178799821,0.6633963710094727,0.017375449720753163
1709730888038620000,26.876619873046874,-4.269996166229248,-2.245910882949829,-6.253255367279053,0.8840662837028503,-0.4537786841392517,0.11185800284147263,-0.9216331839561462,0.8104985356330872,0.48025941848754883,0.6663496148206937,0.33346255261094127,0.6668820930411857,0.007027771516986068
1709730888048639700,26.8866396484375,-4.477061748504639,-2.4289629459381104,-6.342222213745117,0.9132068157196045,-0.40107402205467224,0.07206518948078156,-0.8728166222572327,0.9064145088195801,0.4714071750640869,0.6811437420194143,0.29764602838486426,0.6689091379041638,-0.0032929936190825137
1709730888058658800,26.896658935546874,-4.614145278930664,-2.634323835372925,-6.434353828430176,0.9383872151374817,-0.3441401422023773,0.031582336872816086,-0.8033161759376526,0.9385309219360352,0.4363590478897095,0.6957182650651506,0.2604168515118585,0.6693087718860321,-0.013606101267671393
1709730888068678000,26.906677978515624,-4.769218444824219,-2.782175302505493,-6.500214099884033,0.9590250253677368,-0.2831818759441376,-0.008918295614421368,-0.7697242498397827,0.8983093500137329,0.4069286584854126,0.7098483477211383,0.22202732881088638,0.6680155069157958,-0.02397368370571151
1709730888078697500,26.916697509765626,-5.075418949127197,-2.855052947998047,-6.656008720397949,0.9747218489646912,-0.21806344389915466,-0.04864302650094032,-0.7614343166351318,0.8426513671875,0.39817625284194946,0.7233035540808349,0.18198219312266423,0.6652525601165501,-0.03396702110325245
1709730888088717600,26.926717529296877,-5.209378719329834,-2.903364419937134,-6.813565254211426,0.9851492643356323,-0.148361474275589,-0.0864296704530716,-0.7754781246185303,0.8409578800201416,0.39650362730026245,0.7357288468424806,0.14018330732162093,0.6611609524758312,-0.04379594328094014
1709730888098736400,26.936736328125,-5.334362506866455,-2.9457476139068604,-6.8989949226379395,0.9897891879081726,-0.07495518773794174,-0.12124072760343552,-0.7829714417457581,0.8858835101127625,0.34903931617736816,0.7468203421526574,0.09729810848975799,0.6556772934092826,-0.05366452685964961
1709730888108755500,26.94675537109375,-5.513507843017578,-2.999042510986328,-6.98321008682251,0.9882696866989136,0.0013373148394748569,-0.152713805437088,-0.7546117305755615,0.9915062785148621,0.3512612581253052,0.7565479503483632,0.05329273907896085,0.648693285303606,-0.06318420561070474
1709730888118775300,26.956775390625,-5.565194129943848,-3.013881206512451,-6.995750904083252,0.9804093837738037,0.07965152710676193,-0.18014749884605408,-0.7198197841644287,1.0919334888458252,0.35261762142181396,0.7647432895680865,0.008529924011269417,0.6401980091494462,-0.072397860483266
1709730888128794400,26.96679443359375,-5.461175918579102,-3.0475354194641113,-6.925142765045166,0.9662836194038391,0.15824362635612488,-0.20311309397220612,-0.6509607434272766,1.0848898887634277,0.2927280366420746,0.7713145068711158,-0.036050891069412894,0.6301934538754794,-0.08142775276129591
1709730888138813400,26.9768134765625,-5.316275596618652,-3.0908725261688232,-6.835177898406982,0.9461627006530762,0.23565198481082916,-0.2219107300043106,-0.5623888373374939,0.983494758605957,0.21606667339801788,0.7763981576821719,-0.07977956788895142,0.6186112329189989,-0.09033991000873778
1709730888148832300,26.986832275390626,-5.174026966094971,-3.120555877685547,-6.764836311340332,0.9203659296035767,0.3113388121128082,-0.23663198947906494,-0.5002609491348267,0.8932663202285767,0.1780688315629959,0.7800475675470647,-0.12255338832566479,0.6055284225882012,-0.09920580083104816
1709730888158852400,26.996852294921876,-5.082153797149658,-3.098926544189453,-6.674776554107666,0.8893758654594421,0.3847378194332123,-0.24695643782615662,-0.46769917011260986,0.8920260667800903,0.1814505010843277,0.7822028771757893,-0.1644019129860542,0.5911799995869332,-0.10787451382395136
1709730888168871400,27.006871337890626,-4.865921497344971,-3.0545108318328857,-6.574578762054443,0.8537612557411194,0.45512086153030396,-0.25289657711982727,-0.4526839852333069,0.9315062761306763,0.21153011918067932,0.7828691595267955,-0.20501830546855365,0.5757770481387323,-0.11646509302035574
1709730888178890500,27.016890380859376,-4.626655578613281,-3.0412280559539795,-6.4097161293029785,0.814213216304779,0.5215177536010742,-0.2551004886627197,-0.4575389623641968,0.9110841751098633,0.2385447919368744,0.7822550917660672,-0.24394510451907736,0.5594108861698549,-0.12500932155569544
1709730888188910600,27.02691064453125,-4.476583003997803,-3.0822250843048096,-6.197912693023682,0.7714848518371582,0.5832271575927734,-0.2542778253555298,-0.4574131965637207,0.8715305328369141,0.22664424777030945,0.7806510442646186,-0.28111085633226685,0.5420680502946312,-0.13312738384197104
1709730894060397600,32.8983974609375,-2.940922737121582,-1.5059311389923096,-5.037117004394531,0.7293016910552979,-0.6520107984542847,0.20736654102802277,-1.027748465538025,0.2774990200996399,0.42153969407081604,0.5158086012513586,0.09222208629168917,0.7714780334211155,0.3609130171457034
1709730894070417700,32.90841772460937,-3.1703379154205322,-1.6159263849258423,-5.349207401275635,0.7653513550758362,-0.6190241575241089,0.17619885504245758,-1.062180757522583,0.34445756673812866,0.43197059631347656,0.5323730864929317,0.067029730295602,0.763941388780268,0.3584401423844036
1709730894080436700,32.91843676757812,-3.407127618789673,-1.729397177696228,-5.681026935577393,0.8012053370475769,-0.5809696912765503,0.14333277940750122,-1.0671966075897217,0.424155056476593,0.437477707862854,0.5494885803425645,0.040143976101818205,0.7550197705690677,0.3555220660141404
1709730894090455600,32.92845556640625,-3.7344307899475098,-1.8495004177093506,-6.005959987640381,0.8362107276916504,-0.537527859210968,0.10869698226451874,-1.087019681930542,0.5179356336593628,0.4443730115890503,0.5670061992449584,0.01137331585595512,0.744458956415802,0.35235682935164914
1709730894100475600,32.9384755859375,-4.094247817993164,-2.045884609222412,-6.293512344360352,0.8696032166481018,-0.48847660422325134,0.07197590172290802,-1.1115620136260986,0.6484497785568237,0.4868772029876709,0.5849228637149634,-0.01925081319672442,0.73185883650403,0.34910905447946544
1709730894110494700,32.94849462890625,-4.438460826873779,-2.265406847000122,-6.5812153816223145,0.900489091873169,-0.4336157441139221,0.033111680299043655,-1.1119914054870605,0.7860632538795471,0.5464627742767334,0.6031910249387654,-0.05157890973671528,0.716865019106153,0.34583889489427583
1709730894120513800,32.958513671875,-4.641191482543945,-2.4578161239624023,-6.82871150970459,0.927910327911377,-0.37273895740509033,-0.006925590801984072,-1.073586106300354,0.8874330520629883,0.5528545379638672,0.6215810238680172,-0.08525159072960015,0.6994779273126314,0.34219842410854756
1709730894130532900,32.968532958984376,-4.938080787658691,-2.6550023555755615,-7.014347553253174,0.9507794976234436,-0.30624714493751526,-0.04723142087459564,-1.0219924449920654,0.9103272557258606,0.5355430841445923,0.639747885550299,-0.11991148078556103,0.6797098840945683,0.3381393839333905
1709730894140552400,32.97855249023438,-5.274148941040039,-2.8445026874542236,-7.22703218460083,0.9682112336158752,-0.23430229723453522,-0.087574802339077,-1.01008141040802,0.928012490272522,0.5711410641670227,0.6574219231315367,-0.15574780518654896,0.6572330014911496,0.33404160683382855
1709730894150571500,32.98857153320313,-5.444154262542725,-2.984372854232788,-7.393842697143555,0.9794301986694336,-0.15710850059986115,-0.1266224980354309,-1.0133811235427856,0.9989815950393677,0.5899097919464111,0.6743346606058811,-0.19243261668127468,0.632185448759196,0.3295207639338689
1709730894160590600,32.99859057617188,-5.549071311950684,-3.037173271179199,-7.515050411224365,0.9837697148323059,-0.07576354593038559,-0.16265590488910675,-0.9965871572494507,1.1258885860443115,0.5759859681129456,0.6900653887398563,-0.22939281602853867,0.6050214732644988,0.3242493422599737
1709730894170609700,33.00860961914063,-5.681859970092773,-3.1142771244049072,-7.588618755340576,0.9807987213134766,0.008715472184121609,-0.19482719898223877,-0.9706670641899109,1.2817201614379883,0.5888243913650513,0.704347163296143,-0.2664127757798741,0.5758564326554776,0.3182900046903564
1709730894180629800,33.018629638671875,-5.857748985290527,-3.1793136596679688,-7.604992866516113,0.9702565670013428,0.09513414651155472,-0.22260211408138275,-0.920192539691925,1.3694653511047363,0.5864936709403992,0.7169541523258603,-0.30330710690946283,0.5447051891896563,0.3118938811649742
1709730894190648600,33.028648681640625,-6.064440727233887,-3.238673686981201,-7.582380771636963,0.952155590057373,0.182364359498024,-0.24524059891700745,-0.825507640838623,1.3662652969360352,0.513352632522583,0.7275817625239869,-0.34004333144468796,0.5116153192987237,0.30536057338553413
1709730894200667600,33.038667724609375,-6.16116189956665,-3.29276442527771,-7.524041652679443,0.9267562031745911,0.2690969705581665,-0.26212525367736816,-0.7326492071151733,1.329596757888794,0.4684545397758484,0.7361015628585327,-0.3762682005771216,0.4768224180551171,0.2986921842711244
1709730894210687700,33.04868774414062,-6.07312536239624,-3.307478427886963,-7.447319030761719,0.8944865465164185,0.35393983125686646,-0.2731669843196869,-0.652970552444458,1.2753019332885742,0.3806193172931671,0.742687391314141,-0.4112974180773811,0.4407390917905508,0.2915454734281756
1709730894220706800,33.05870678710937,-5.927583694458008,-3.2980759143829346,-7.325246334075928,0.8561192750930786,0.43536892533302307,-0.2784126400947571,-0.5462743639945984,1.2279305458068848,0.2811133861541748,0.7474560774106667,-0.4445712247475668,0.40391843355275675,0.283752850784429
1709730894230725600,33.0687255859375,-5.682887077331543,-3.28068208694458,-7.199268817901611,0.8124077916145325,0.5123615860939026,-0.2783506512641907,-0.47904908657073975,1.2132699489593506,0.2220151126384735,0.7505912610473475,-0.4757904032102868,0.3666717502965687,0.2752961840390073
1709730894240745500,33.078745361328124,-5.721773147583008,-3.2430527210235596,-7.014547824859619,0.7643212080001831,0.5842270255088806,-0.2729319632053375,-0.43390727043151855,1.182023525238037,0.17770174145698547,0.7519794587269646,-0.5051143538178416,0.32923170245106126,0.2664448537171137
1709730894250764500,33.0887646484375,-5.908947944641113,-3.1705238819122314,-6.942594051361084,0.7125721573829651,0.6514267921447754,-0.260545015335083,-0.38293659687042236,1.1793224811553955,0.17811694741249084,0.7509367561528698,-0.5336984603478716,0.2913647993264554,0.2576165281895342
1709730894260783600,33.09878369140625,-5.649621486663818,-3.1260108947753906,-6.85891580581665,0.6573596596717834,0.7135418653488159,-0.2423553466796875,-0.38941532373428345,1.1770219802856445,0.17051684856414795,0.7480387718651172,-0.5609748282841687,0.25323816035198354,0.24822480717111844
1709730894270802700,33.108802734375,-4.931464672088623,-3.1559295654296875,-6.590428829193115,0.6000136733055115,0.768352746963501,-0.2227497100830078,-0.37642669677734375,1.066394329071045,0.017793551087379456,0.7447165917488976,-0.5848863328936607,0.21571537152053358,0.23826854954727203
1709730894280822500,33.11882250976562,-4.370768070220947,-3.2161865234375,-6.270102024078369,0.5421990156173706,0.8150469660758972,-0.20425079762935638,-0.3047875165939331,0.9595499634742737,-0.13660018146038055,0.7415836345949679,-0.604756636449725,0.17928751776058652,0.22842710242501144
1709730897507032600,36.345032470703124,-4.669553756713867,-3.140667200088501,-6.582581043243408,0.9746081233024597,-0.21679651737213135,0.05601811036467552,-1.323103666305542,0.8446803092956543,0.5207945108413696,0.6304032864014636,-0.1371788134042447,0.7135762247437939,0.27309798869119883
1709730897517051600,36.3550517578125,-5.05074405670166,-3.353241205215454,-6.752950191497803,0.9881274104118347,-0.15289637446403503,0.015056872740387917,-1.343794584274292,0.9474366903305054,0.530490517616272,0.6471686844145811,-0.17178951337022447,0.691387589800295,0.2713745319812508
1709730897527070500,36.365070556640624,-5.399184226989746,-3.542090654373169,-6.916839122772217,0.9960877299308777,-0.08465119451284409,-0.02535863034427166,-1.3078402280807495,1.05829918384552,0.5217117667198181,0.6631648119318384,-0.20752787273778037,0.6665229680769729,0.26998436530622577
1709730897537090600,36.37509057617188,-5.782232284545898,-3.707310199737549,-7.052881717681885,0.9978513717651367,-0.01228215079754591,-0.06435562670230865,-1.2389098405838013,1.15347158908844,0.5051819682121277,0.6781395602594872,-0.24426810565944265,0.6388703160161007,0.26889485549351116
1709730897547109600,36.38510961914063,-5.971449375152588,-3.8280463218688965,-7.146972179412842,0.9929153323173523,0.0635017454624176,-0.10043013840913773,-1.1358141899108887,1.2141928672790527,0.44599586725234985,0.6916899580588868,-0.28165636462796223,0.6086498372133214,0.2679176046234355
1709730897557128700,36.39512866210937,-5.938747882843018,-3.9088492393493652,-7.146507740020752,0.9810456037521362,0.1412365734577179,-0.13267019391059875,-1.0290040969848633,1.214704990386963,0.34356188774108887,0.7038114867424119,-0.3185241273080819,0.5763742557944632,0.2664287095711065
1709730897567148800,36.405148681640625,-5.9456353187561035,-3.9049441814422607,-7.146149635314941,0.9623797535896301,0.21955899894237518,-0.16005851328372955,-0.9222493171691895,1.2248225212097168,0.24465323984622955,0.714270646870557,-0.35443652702390854,0.5425361675505498,0.2642848811872583
1709730897577167600,36.415167724609375,-6.0737996101379395,-3.793031930923462,-7.174797058105469,0.9372104406356812,0.29803600907325745,-0.18113768100738525,-0.8617558479309082,1.2991012334823608,0.20951898396015167,0.7226328673686975,-0.3898191148102344,0.5074171997825233,0.26147734997071836
1709730897587186700,36.425186767578126,-6.082551002502441,-3.672075033187866,-7.210460662841797,0.9058598279953003,0.37599679827690125,-0.19504934549331665,-0.8214482665061951,1.3466440439224243,0.19890977442264557,0.7287152729458694,-0.4247453992074164,0.47123950487641897,0.25787326044829273
1709730897597205800,36.435205810546876,-5.832583427429199,-3.5161030292510986,-7.221230983734131,0.8687134385108948,0.45214223861694336,-0.20224761962890625,-0.749069333076477,1.3067076206207275,0.16005700826644897,0.7329007683348714,-0.4584001082002216,0.43444853359523616,0.25294290181501394
1709730900773319000,39.61131884765625,-3.6964783668518066,-2.2689473628997803,-6.036463260650635,0.9119246006011963,-0.4099233150482178,0.01887556165456772,-0.6976760625839233,0.7370869517326355,0.4165339469909668,0.5907508828975686,-0.10290539243080597,0.706291909383988,0.3762652565843901
1709730900783339000,39.621339111328126,-3.989224910736084,-2.3932342529296875,-6.150604724884033,0.9352671504020691,-0.35351455211639404,-0.01739775761961937,-0.6988781094551086,0.800123929977417,0.3749263882637024,0.608074032280061,-0.13137501677121036,0.6885068817411596,0.3727530016767221
1709730900793357800,39.63135791015625,-4.263124465942383,-2.505657196044922,-6.272337436676025,0.9545149803161621,-0.29323142766952515,-0.054001521319150925,-0.7011582851409912,0.8331483602523804,0.36084043979644775,0.624924053912211,-0.16069120272676377,0.6687133736494582,0.36941912463295085
1709730900803377000,39.641376953125,-4.49428653717041,-2.619931697845459,-6.388956546783447,0.9692390561103821,-0.22901225090026855,-0.0901586189866066,-0.7104045152664185,0.8557364344596863,0.40600019693374634,0.6411797068707402,-0.1907236393685752,0.6469506800160585,0.366015931578456
1709730900813397000,39.65139697265625,-4.751589298248291,-2.7469489574432373,-6.494699001312256,0.9789428114891052,-0.16107922792434692,-0.12539619207382202,-0.706253170967102,0.8911053538322449,0.48203980922698975,0.6567040569530024,-0.22136913589757654,0.6231353072780809,0.36254344490987833
1709730900823416000,39.661416015625,-4.991881847381592,-2.8423874378204346,-6.5450968742370605,0.9831623435020447,-0.08998166024684906,-0.15904319286346436,-0.6677786707878113,0.9399571418762207,0.5639045834541321,0.6712641072010379,-0.2524628875455612,0.5972779026438193,0.35906251633107344
1709730900833435100,39.67143505859375,-5.194575786590576,-2.8809216022491455,-6.58212947845459,0.9816539883613586,-0.0164024755358696,-0.18996401131153107,-0.6067609190940857,0.9699851274490356,0.5681225061416626,0.6845401116159188,-0.2838395896437419,0.5696078299767043,0.35550919621134025
1709730900843454000,39.68145385742187,-5.372805118560791,-2.88132905960083,-6.615498065948486,0.9743615984916687,0.05907232314348221,-0.21709443628787994,-0.5416070818901062,0.9631443619728088,0.5047224760055542,0.6963089600083442,-0.3153632837231498,0.5403691167980521,0.3517116592901012
1709730900853473800,39.691473876953125,-5.463109493255615,-2.884721040725708,-6.6469879150390625,0.9612808227539062,0.13585205376148224,-0.23975712060928345,-0.504844605922699,0.9273039698600769,0.4174761474132538,0.7065107168614604,-0.3468239826412715,0.5097396996466755,0.3474495599969396
1709730900863492900,39.701492919921876,-5.450018405914307,-2.920506238937378,-6.663299560546875,0.9424037933349609,0.21298830211162567,-0.25789716839790344,-0.4816494584083557,0.8979582786560059,0.3119589686393738,0.715271856733558,-0.37773916415183945,0.47787501988423653,0.3425415402997909
1709730900873512000,39.711511962890626,-5.236677646636963,-2.9445505142211914,-6.6803483963012695,0.9178065657615662,0.28945404291152954,-0.27174875140190125,-0.46365922689437866,0.8950397968292236,0.2584582269191742,0.722872287721894,-0.4074810673648684,0.44506719027541813,0.33664522795444574
1709730900883532000,39.72153198242187,-4.948882579803467,-3.0214390754699707,-6.607619762420654,0.8877537250518799,0.363752156496048,-0.2820952534675598,-0.4696170687675476,0.8898335099220276,0.20348182320594788,0.7296363426830684,-0.4352776100967234,0.4116865000172621,0.32966415561528406
1709730900893550800,39.73155078125,-4.951796531677246,-3.0577073097229004,-6.493348121643066,0.8528162240982056,0.43501365184783936,-0.28890737891197205,-0.45379894971847534,0.8629750609397888,0.17463424801826477,0.7352736607124123,-0.4613592159080434,0.3777485660477815,0.32222080617759224
1709730900903570000,39.74156982421875,-4.986018180847168,-3.0263752937316895,-6.432022571563721,0.8135566115379333,0.5034415125846863,-0.2909846603870392,-0.4172096252441406,0.8292303681373596,0.2390742003917694,0.7392807857081309,-0.48653378213832077,0.3432091878988153,0.314572891090144
1709730900913589000,39.75158911132812,-5.163455963134766,-3.005723476409912,-6.353641986846924,0.770469069480896,0.5688686370849609,-0.28769049048423767,-0.407126784324646,0.766412615776062,0.297776460647583,0.7414951160170353,-0.511048762416344,0.30819460972331797,0.30664340180038996
1709730900923609000,39.76160913085938,-5.1887922286987305,-3.010918617248535,-6.331515312194824,0.7237707376480103,0.6311785578727722,-0.27887165546417236,-0.41893070936203003,0.725587010383606,0.2560749351978302,0.7418243738054237,-0.5350855632386017,0.2724841370257865,0.29855035838918087
1709730900933628000,39.7716279296875,-4.6633710861206055,-3.0467703342437744,-6.1774187088012695,0.6740200519561768,0.6886449456214905,-0.26732906699180603,-0.43882113695144653,0.7122185230255127,0.17429617047309875,0.7413829167990673,-0.5570121146122975,0.23679731130801557,0.2898546530668416
1709730900943647000,39.78164697265625,-4.099748134613037,-3.1457464694976807,-5.8736348152160645,0.6227748990058899,0.7392657399177551,-0.2561977803707123,-0.43492400646209717,0.7024759650230408,0.10046645998954773,0.7410149753469261,-0.5754230795293469,0.20196381710082253,0.28106144907710207
1709730900953666800,39.79166674804687,-3.775174379348755,-3.2624311447143555,-5.617137432098389,0.5709242820739746,0.783478319644928,-0.24537092447280884,-0.4243330955505371,0.7723075151443481,0.024194687604904175,0.7404600152306486,-0.5908813213046542,0.1678505278857797,0.27277140317399895
1709730900963686000,39.80168579101562,-3.463399887084961,-3.3926546573638916,-5.447204113006592,0.5184351801872253,0.8223729729652405,-0.23436596989631653,-0.43940991163253784,0.8467704653739929,-0.026986703276634216,0.7395784829566583,-0.604015986431332,0.1340958679713798,0.2649651213875653
1709730900973705000,39.811705078125,-3.253488779067993,-3.5368616580963135,-5.241119861602783,0.46546560525894165,0.8564122915267944,-0.223382368683815,-0.44428637623786926,0.804567813873291,-0.04515719413757324,0.7384210590368169,-0.6149819094434136,0.10052894331443056,0.2577313400566152
1709730900983723800,39.82172387695312,-3.374544620513916,-3.5528476238250732,-5.007835865020752,0.4130341112613678,0.8861304521560669,-0.21017907559871674,-0.4178864359855652,0.7199483513832092,-0.01690235733985901,0.7361927068082188,-0.6248033687570731,0.0673142816335837,0.25121627166613014
1709730900993744000,39.831743896484376,-3.6267385482788086,-3.5617682933807373,-4.896361351013184,0.3612891435623169,0.9123825430870056,-0.19242680072784424,-0.4132910668849945,0.6724408864974976,0.035154297947883606,0.732209950206517,-0.6345156625690942,0.03429970995252442,0.24511606174182957
1709730901003763000,39.841762939453126,-3.7239367961883545,-3.651205062866211,-4.864353656768799,0.3095616102218628,0.9355091452598572,-0.17027631402015686,-0.4715641438961029,0.6424936056137085,-0.007839664816856384,0.7265947373714889,-0.644096893927362,0.0010153580174558296,0.2391612946716325
1709730901013782000,39.851781982421876,-3.382047653198242,-3.7519125938415527,-4.795371055603027,0.2578597366809845,0.9549494981765747,-0.14689958095550537,-0.5475783348083496,0.6339479684829712,-0.20637206733226776,0.7204054719828741,-0.6523064835479525,-0.03234908380169406,0.2333785185261643
1709730901023802000,39.86180200195312,-2.91322660446167,-3.774057149887085,-4.604578018188477,0.20734646916389465,0.9702048897743225,-0.1253385841846466,-0.5594735145568848,0.6390326619148254,-0.4235813021659851,0.7145927915807255,-0.6581093000141247,-0.06498351005648303,0.22809278371464942
1709730901033821000,39.87182104492187,-2.398726224899292,-3.637887477874756,-4.447938442230225,0.15882620215415955,0.9815877079963684,-0.10611176490783691,-0.5207036137580872,0.6568856835365295,-0.4257335066795349,0.70939828118693,-0.6615821092525556,-0.09619371357949295,0.22318130640893444
1709730901043840000,39.88184008789062,-1.7182514667510986,-3.3782036304473877,-4.296719074249268,0.11213546246290207,0.9895652532577515,-0.09047790616750717,-0.5314774513244629,0.6064735054969788,-0.30399250984191895,0.7054341501876893,-0.6625889361691532,-0.1254469948374257,0.2181779920980241
1709730901053859000,39.89185913085937,-1.4176056385040283,-3.099799633026123,-4.077380180358887,0.06777521967887878,0.9946257472038269,-0.07826797664165497,-0.5634874701499939,0.524829089641571,-0.17890387773513794,0.7026567145955028,-0.6615450769833329,-0.15239463099437048,0.21309012028637853
1709730901063879000,39.90187890625,-1.5311561822891235,-2.8556463718414307,-3.979841709136963,0.025543343275785446,0.9975597858428955,-0.0649762824177742,-0.5735779404640198,0.5552507638931274,-0.07120859622955322,0.6995588899266276,-0.6602542819515971,-0.17769677247017676,0.20761853817895456
1709730901073898000,39.91189794921875,-1.6043391227722168,-2.637040376663208,-4.005313873291016,-0.01596432365477085,0.9986525177955627,-0.04937943071126938,-0.5662957429885864,0.5843552350997925,-0.050214894115924835,0.6958438044295503,-0.659145483447676,-0.2020829420355648,0.20122416850453087
1709730901083916800,39.921916748046876,-1.6280544996261597,-2.5597708225250244,-3.9562461376190186,-0.056925881654024124,0.9978583455085754,-0.03222076594829559,-0.5412643551826477,0.5118004679679871,-0.14685660600662231,0.6916704338932043,-0.6579365488492874,-0.22585197423017217,0.19417099241663274
1709730901093937000,39.93193701171875,-1.4929155111312866,-2.5152690410614014,-3.812368869781494,-0.09634373337030411,0.9952425956726074,-0.01448297780007124,-0.4754182994365692,0.45660048723220825,-0.3576485514640808,0.687159174797218,-0.6563463671273823,-0.24893364113810235,0.18722609599527967
1709730901103956000,39.9419560546875,-0.9988027811050415,-2.4025304317474365,-3.670454263687134,-0.13372696936130524,0.9910178184509277,0.0009651361615397036,-0.3850870728492737,0.44065338373184204,-0.5952341556549072,0.6832415549095299,-0.6535537700829145,-0.27083212086965797,0.18082716203446839
1709730901113975000,39.95197509765625,-0.3194383680820465,-2.197770357131958,-3.4612574577331543,-0.16898265480995178,0.9855571389198303,0.01104410458356142,-0.29929426312446594,0.4642108678817749,-0.6510283946990967,0.6810135333878629,-0.6487350130527654,-0.2909723958558543,0.17520992698471874
1709730901123993900,39.96199389648437,0.45154088735580444,-1.8837239742279053,-3.1899731159210205,-0.2014206051826477,0.9793991446495056,0.014389771036803722,-0.2470961958169937,0.5549178123474121,-0.4940347671508789,0.680961670099822,-0.6418112107504917,-0.30866366010200114,0.1705763622741339
1709730901134014000,39.97201391601563,1.1095683574676514,-1.634948492050171,-3.0826799869537354,-0.2317378669977188,0.972726047039032,0.010064465925097466,-0.2295200079679489,0.644903838634491,-0.3843017816543579,0.6834833314595743,-0.6325575219629682,-0.3238876571438077,0.16678780335096696
1709730901144033000,39.98203295898438,0.8600695133209229,-1.6240055561065674,-3.0572004318237305,-0.2614811062812805,0.9652004837989807,0.003928276710212231,-0.1818934679031372,0.6415041089057922,-0.3809884786605835,0.6866170289150626,-0.6225281823118473,-0.3382643944396168,0.16307300747690368
1709730901154052000,39.99205200195313,0.05003952234983444,-1.620994210243225,-3.0555102825164795,-0.2907692790031433,0.9567843675613403,0.004091231152415276,-0.09398102760314941,0.5099361538887024,-0.19902241230010986,0.6876512500735982,-0.614390289067778,-0.352945021565969,0.15839840501171323
1709730901164072000,40.00207202148437,-0.4815303683280945,-1.4454275369644165,-3.074509859085083,-0.31996336579322815,0.9473649859428406,0.011084293015301228,-0.07507136464118958,0.23307007551193237,-0.010046958923339844,0.6865297337633909,-0.6084720582200132,-0.3678367859231185,0.15210100503498616
1709730901174090800,40.0120908203125,-0.749496579170227,-1.2042700052261353,-3.03767466545105,-0.34857794642448425,0.9370346069335938,0.02143777534365654,-0.12952566146850586,0.008201658725738525,0.12999022006988525,0.6844077914359217,-0.6039065372171005,-0.38212011398608,0.14445447968775924
1709730901184109800,40.02210986328125,-0.6538941860198975,-0.9362061023712158,-3.090176582336426,-0.3768260180950165,0.92572420835495,0.032199274748563766,-0.19943735003471375,0.014476537704467773,0.24042928218841553,0.6822443166616998,-0.5997052884882987,-0.39554166022192927,0.1358051006671259
1709730901194129000,40.03212890625,-0.06552302837371826,-0.7091994881629944,-3.111686944961548,-0.4051869809627533,0.9134069085121155,0.03887372091412544,-0.27721649408340454,0.18423402309417725,0.23068785667419434,0.6815241595791665,-0.5942152259325176,-0.40785429425636566,0.1268379831892787
1709730901204149000,40.04214892578125,0.44666916131973267,-0.795002818107605,-2.997713327407837,-0.432720810174942,0.9006399512290955,0.04000309854745865,-0.3044464588165283,0.37789392471313477,0.031957149505615234,0.6825281142026649,-0.586701435510763,-0.41926480371032004,0.1189695616968007
1709730901214168000,40.05216796875,0.46911242604255676,-1.002425193786621,-2.7760519981384277,-0.4582892656326294,0.8879210948944092,0.03958248719573021,-0.23857954144477844,0.5190916657447815,-0.1496596336364746,0.6837415267132002,-0.5783418276309714,-0.43047877353704456,0.11272154971431007
1709730901224213500,40.06221362304687,0.313239723443985,-1.0336235761642456,-2.5494394302368164,-0.48139724135398865,0.8755385875701904,0.04109020158648491,-0.1671622395515442,0.566584587097168,-0.24812161922454834,0.6067588423948133,-0.7214881156879693,5.0751077530594875e-17,-0.33361411300256366
1709730901234233600,40.07223364257813,0.07936971634626389,-0.9726659655570984,-2.3148679733276367,-0.5022109746932983,0.8636198043823242,0.04409565404057503,-0.15254348516464233,0.5158202052116394,-0.33578288555145264,0.6034246898154384,-0.7224255954842517,-0.012210068037410815,-0.33738785911557995
1709730901244252700,40.08225268554688,-0.4752085506916046,-0.8649469614028931,-2.1556947231292725,-0.5208408832550049,0.8521335124969482,0.050920404493808746,-0.16699469089508057,0.43735605478286743,-0.38582050800323486,0.598693000789024,-0.7245334419220222,-0.022616240348740036,-0.34074376710209614
1709730901254271700,40.09227172851563,-0.37180519104003906,-0.7895671129226685,-2.14497971534729,-0.5386275053024292,0.8404730558395386,0.05903271958231926,-0.14846032857894897,0.4005392789840698,-0.4242978096008301,0.5932724384827902,-0.726969865220186,-0.032111902270877735,-0.3442544948422299
1709730901264290600,40.10229052734375,-0.22086282074451447,-0.879707396030426,-2.0983457565307617,-0.5558733940124512,0.8286433219909668,0.06598937511444092,-0.11345326900482178,0.30070531368255615,-0.43287193775177,0.5883932107621452,-0.7288656076365263,-0.04182836297605389,-0.34756089319307376
1709730901274310700,40.112310546875,-0.11235924065113068,-0.8169878125190735,-1.9867634773254395,-0.5721830129623413,0.8169339895248413,0.0722857341170311,-0.06046152114868164,0.23375558853149414,-0.24561047554016113,0.5839699068492356,-0.7304012705922649,-0.05154464216425759,-0.35047994822297374
1709730901284329700,40.122329833984374,-0.09682928025722504,-0.6291305422782898,-1.8055726289749146,-0.5870223045349121,0.8058599233627319,0.0774245634675026,-0.019377171993255615,0.1933313012123108,-0.08932662010192871,0.5799971762807923,-0.7314845733404305,-0.06035395131255731,-0.35339913795546557
1709730901294348800,40.132348876953124,-0.09790493547916412,-0.48717740178108215,-1.7616430521011353,-0.6008522510528564,0.7951973676681519,0.08147098124027252,-0.05338352918624878,0.19003206491470337,-0.10187220573425293,0.5763458317929528,-0.7321605060319445,-0.0683848296259503,-0.35649671568257035
1709730901304368600,40.14236865234375,0.011283336207270622,-0.21606893837451935,-1.64639413356781,-0.6141026616096497,0.7847456932067871,0.08397730439901352,-0.07022351026535034,0.20117050409317017,-0.16155314445495605,0.5729731451804658,-0.7323089382237737,-0.07557956646363523,-0.3601571049023833
1709730901314387500,40.152387451171876,-0.019434629008173943,-0.05328817293047905,-1.4062931537628174,-0.6259640455245972,0.7752276659011841,0.08480054140090942,-0.10168182849884033,0.1508130431175232,-0.14044952392578125,0.5701154771203644,-0.7319520797689177,-0.08152560320196847,-0.36409898635539817
1709730901324406500,40.162406494140626,0.3076593279838562,0.06909500062465668,-1.1682065725326538,-0.6359244585037231,0.7671839594841003,0.08383756875991821,-0.18515098094940186,0.11762744188308716,-0.12766098976135254,0.5682215510838148,-0.7310513831223426,-0.08650236965291473,-0.36770288901041576
1709730901334425600,40.172425537109376,0.6552525162696838,0.3178538382053375,-0.902273952960968,-0.6440070271492004,0.7609416842460632,0.07888289541006088,-0.22430956363677979,0.07188296318054199,-0.10502135753631592,0.5681516908138146,-0.7288564425900931,-0.09060757347507707,-0.37116315249007154
1709730901344445700,40.18244580078125,1.1042102575302124,0.34711453318595886,-0.5558012127876282,-0.6499273777008057,0.7567741274833679,0.06990683078765869,-0.193486750125885,0.005539596080780029,-0.16548800468444824,0.5701455794809138,-0.7253415586241287,-0.09398425609695817,-0.37413959237312777
1709730901354464800,40.19246484375,1.0946797132492065,0.18797440826892853,-0.1585633009672165,-0.6526985764503479,0.7552542686462402,0.05979473143815994,-0.14542758464813232,0.008798956871032715,-0.30523252487182617,0.5736193682655959,-0.721514529443254,-0.09650984331861526,-0.37558406797914967
1709730901364483600,40.20248364257812,1.4018970727920532,0.024777762591838837,-0.041254784911870956,-0.6533862352371216,0.7553948760032654,0.04964869096875191,-0.12859612703323364,0.15036684274673462,-0.46348249912261963,0.578002717687741,-0.7176752389900519,-0.0988260927245193,-0.3756174725508395
1709730901374503700,40.21250366210938,1.2448619604110718,-0.21601524949073792,-0.17833834886550903,-0.6540658473968506,0.7553801536560059,0.03997952491044998,-0.13778889179229736,0.3351195454597473,-0.4853227138519287,0.5826685812878193,-0.7138479210561587,-0.10203385927990216,-0.37484314390361334
1709730901384522800,40.22252270507813,0.9920744299888611,-0.3144643306732178,-0.45550337433815,-0.6563458442687988,0.7537127733230591,0.03357250615954399,-0.1677507758140564,0.6227977871894836,-0.2746615409851074,0.5858226595815051,-0.7110172140404554,-0.10602252005152991,-0.3741998251779047
1709730901394541800,40.23254174804688,1.0226554870605469,-0.1849236935377121,-0.6712868213653564,-0.660559892654419,0.7502653002738953,0.027613995596766472,-0.21172398328781128,0.823144793510437,-0.16970407962799072,0.5882190654580888,-0.7082044394093071,-0.11069539079277278,-0.3744212679442796
1709730901404560600,40.242560546875,0.6735212206840515,-0.08273021876811981,-0.7733985185623169,-0.6659719347953796,0.7456526160240173,0.021984528750181198,-0.2239663004875183,0.7067093253135681,-0.24020063877105713,0.5898576025299891,-0.7054779214993581,-0.11529599615993683,-0.37560032723428965
1709730901414580500,40.25258056640625,0.5120140910148621,-0.08362972736358643,-0.8717464208602905,-0.6720991730690002,0.7402338981628418,0.018338019028306007,-0.1704300045967102,0.4746555685997009,-0.3313875198364258,0.5902241016805337,-0.7034865374154637,-0.11948096661501999,-0.3774472195565545
1709730901424599600,40.262599609375,0.13556747138500214,-0.1153130829334259,-0.8336895704269409,-0.678428590297699,0.7344855666160583,0.016291724517941475,-0.06871795654296875,0.2419242262840271,-0.49035191535949707,0.5897841720280871,-0.7020794807195609,-0.1234109594224856,-0.37948478120700335
1709730901434618600,40.27261865234375,0.06900575757026672,-0.14747464656829834,-0.7371688485145569,-0.6841879487037659,0.7291117310523987,0.01680898852646351,0.037581682205200195,0.12306094169616699,-0.6019227504730225,0.5884150975229585,-0.7016719267568607,-0.12673200547232277,-0.3812650121840303
1709730901444638700,40.282638671875,0.17408344149589539,-0.22437794506549835,-0.5509102940559387,-0.6888882517814636,0.7246657013893127,0.017093058675527573,0.06719952821731567,0.055851757526397705,-0.5929142236709595,0.5875180764306365,-0.7012126630911796,-0.12979726630820212,-0.3824601170175266
1709730901454657500,40.292657470703126,0.05579887330532074,-0.2236642837524414,-0.4368695020675659,-0.6923486590385437,0.7213436365127563,0.017795825377106667,0.0568811297416687,0.018005669116973877,-0.5281720161437988,0.5868933652025471,-0.7009678497152914,-0.13244616523443803,-0.38295984665698274
1709730901464676600,40.30267651367188,-0.08447248488664627,-0.020069070160388947,-0.477511465549469,-0.6955807209014893,0.718198835849762,0.018918197602033615,0.030709564685821533,0.14494502544403076,-0.40359246730804443,0.5858367291230495,-0.7010034687978716,-0.13436232814985735,-0.3838439774927008
