time,seconds_elapsed,rotationRateX,rotationRateY,rotationRateZ,gravityX,gravityY,gravityZ,accelerationX,accelerationY,accelerationZ,quaternionW,quaternionX,quaternionY,quaternionZ
1709730679621781800,0.08278173828125,-0.2934824228286743,-0.059310540556907654,-0.048886071890592575,-0.02672101929783821,-0.41070860624313354,-0.9113750457763672,0.0023069530725479126,-0.01910102367401123,0.027021408081054688,0.9775928068866901,0.21006118307266608,-0.013666743012885162,-3.050496846180002e-17
1709730679631800800,0.09280078125,-0.23812063038349152,-0.03419266641139984,-0.035053081810474396,-0.02705269493162632,-0.40807703137397766,-0.9125465750694275,0.0002429913729429245,-0.025532037019729614,0.029673099517822266,0.9778922216093338,0.2086469657798567,-0.013897784597054891,-0.0003076372284487592
1709730679641837000,0.102837158203125,-0.33031153678894043,-0.004232796840369701,0.4143196642398834,-0.027683261781930923,-0.4058293104171753,-0.9135295748710632,-0.027202602475881577,-0.020150303840637207,0.03636276721954346,0.9781436551196391,0.207448730885852,-0.014150918566081302,-2.5956073971521854e-17
1709730679651856400,0.1128564453125,-0.25602906942367554,0.23014961183071136,0.03587089478969574,-0.027234841138124466,-0.40295010805130005,-0.9148166179656982,-0.06418056786060333,-0.008884608745574951,0.04187655448913574,0.9784724023300636,0.20590774964365155,-0.013917020342229603,-8.282636566726556e-17
1709730679661875500,0.12287548828125,-0.28180044889450073,0.1897309124469757,-0.08188636600971222,-0.02476455830037594,-0.4006342589855194,-0.9159033298492432,-0.10899398475885391,0.01464793086051941,0.050791025161743164,0.9787500173924437,0.2046650067127099,-0.012671687245561922,-0.00009838144813467879
1709730679671894500,0.13289453125,-0.33316031098365784,-0.07361815124750137,0.0452076680958271,-0.024275369942188263,-0.3977082073688507,-0.9171907305717468,-0.04739516228437424,0.040606796741485596,0.049041926860809326,0.9790788061861404,0.2031021678818944,-0.012415107193437474,-0.00008706791930580588
1709730679681913300,0.142913330078125,-0.37186405062675476,-0.14428837597370148,-0.029748596251010895,-0.025507230311632156,-0.39451512694358826,-0.9185353517532349,0.11065126955509186,0.026091665029525757,0.05978596210479736,0.979422038620165,0.20139977442747165,-0.013055996003589925,-0.00016740230662458646
1709730679691932400,0.152932373046875,-0.4658176898956299,-0.09933475404977798,-0.09440109133720398,-0.026397384703159332,-0.3905927240848541,-0.9201850295066833,0.09197965264320374,-0.033922046422958374,0.04906076192855835,0.9798429467657636,0.1993050667650808,-0.013600290012404644,-0.0006395005937357807
1709730679701951500,0.162951416015625,-0.3960045278072357,-0.04109366238117218,-0.10928656160831451,-0.02664010412991047,-0.3866152763366699,-0.9218562245368958,-0.003923244774341583,-0.05093047022819519,0.04571181535720825,0.980268578136787,0.19718105079870946,-0.01383895438350584,-0.0012467724030953598
1709730679711970600,0.172970458984375,-0.3102281093597412,-0.0031241755932569504,-0.09296032041311264,-0.02643362618982792,-0.38336077332496643,-0.9232203364372253,-0.05246956646442413,-0.02850446105003357,0.030459105968475342,0.9806155171582462,0.1954440403355308,-0.013837106557980206,-0.001801377902677188
1709730679721989400,0.1829892578125,-0.24166423082351685,0.0002738051116466522,-0.0438777320086956,-0.02618209831416607,-0.38086235523223877,-0.9242609739303589,-0.05499465763568878,0.03821098804473877,0.008474230766296387,0.9808801552532667,0.19411288867394685,-0.013772851593065438,-0.002155795869010675
1709730679732009500,0.193009521484375,-0.267986923456192,0.005613975692540407,-0.03651062771677971,-0.02602890133857727,-0.3785601854324341,-0.9252105951309204,-0.04286452382802963,0.07576477527618408,-0.02205502986907959,0.9811216754328699,0.19288931650465072,-0.013726213413570382,-0.002346604893580851
1709730679742028500,0.203028564453125,-0.28805384039878845,0.010292403399944305,-0.049965985119342804,-0.02577882818877697,-0.375957190990448,-0.9262783527374268,-0.03411191701889038,0.042598456144332886,-0.03247708082199097,0.9813931612411437,0.19150674242725066,-0.01363736814110125,-0.002580617373649152
1709730679752047600,0.213047607421875,-0.2832169830799103,-0.0030036941170692444,-0.04233416169881821,-0.025560302659869194,-0.3733084499835968,-0.9273551106452942,-0.02505309507250786,0.026018410921096802,-0.03021019697189331,0.9816667828205772,0.1901010871539517,-0.013565548318882667,-0.002823219552356448
1709730679762066400,0.22306640625,-0.23895525932312012,-0.012926793657243252,-0.049672771245241165,-0.02548016980290413,-0.37087640166282654,-0.9283326268196106,-0.00769243948161602,0.03280267119407654,-0.031567275524139404,0.9819148803844115,0.18881120035338794,-0.01356536478538436,-0.0030715778973009504
1709730679772085500,0.23308544921875,-0.20277409255504608,-0.005983666516840458,-0.05263740196824074,-0.025393202900886536,-0.36882293224334717,-0.9291527271270752,0.003161141648888588,0.047732263803482056,-0.03176945447921753,0.9821227455133075,0.1877219325498329,-0.013568516702425561,-0.0033525505429635805
1709730683168557800,3.629557861328125,-0.8618752956390381,-0.8165720105171204,-1.4697842597961426,0.28420016169548035,-0.8682964444160461,-0.4065605401992798,-0.4779868423938751,0.025034785270690918,0.1867729127407074,0.458926608283962,0.1414824849997253,0.5260251339471161,0.7019020717288474
1709730683178577000,3.639576904296875,-0.9491708278656006,-0.9487156867980957,-1.7047687768936157,0.2943257987499237,-0.8599376082420349,-0.4169884920120239,-0.5378866195678711,0.05320560932159424,0.2205774188041687,0.4674737660315544,0.13830612780059515,0.5218976589277704,0.6999731186789732
1709730683188596000,3.649595947265625,-1.1249796152114868,-1.0977060794830322,-1.89520263671875,0.3054051399230957,-0.850170910358429,-0.42887893319129944,-0.5839085578918457,0.043072521686553955,0.26762402057647705,0.4771280960591588,0.13476203215262825,0.5171070820570391,0.6977021019491252
1709730683198615000,3.659614990234375,-1.2027777433395386,-1.3255480527877808,-2.112506151199341,0.3170926868915558,-0.8387616276741028,-0.4426411986351013,-0.6429746747016907,0.003968536853790283,0.33897292613983154,0.4880236682541176,0.13095894508642636,0.5113992190730451,0.6950924578547781
1709730683208635000,3.669634765625,-1.2524166107177734,-1.5657389163970947,-2.2576327323913574,0.32876938581466675,-0.8262017965316772,-0.4574945867061615,-0.7211033701896667,-0.03019767999649048,0.4400079846382141,0.5001036367024786,0.12743131527516421,0.5049890727087304,0.6918407993098203
1709730683218654000,3.679654052734375,-1.4929293394088745,-1.7290695905685425,-2.460556745529175,0.3404192626476288,-0.8119259476661682,-0.47422677278518677,-0.7942919731140137,0.006597578525543213,0.5275867581367493,0.5132406081793827,0.12373772284651252,0.4975696820096731,0.6882568359920189
1709730683228673000,3.689673095703125,-1.7678879499435425,-1.9103788137435913,-2.690406084060669,0.35234299302101135,-0.7950788736343384,-0.4936639964580536,-0.8728203177452087,0.15149366855621338,0.5897180438041687,0.5275927182896555,0.1193809499187576,0.4887905433326733,0.6844545477344958
1709730683238692000,3.699692138671875,-2.104017972946167,-2.0810766220092773,-2.8990285396575928,0.36420831084251404,-0.7752752900123596,-0.5160431265830994,-0.8938103914260864,0.2761908769607544,0.5692352652549744,0.5431166291858426,0.114264765149668,0.4784579244111856,0.6804748094452919
1709730683248711000,3.7097109375,-2.4977517127990723,-2.1934008598327637,-3.144817352294922,0.37597623467445374,-0.7518951296806335,-0.5415676236152649,-0.8504941463470459,0.3131439685821533,0.4939907193183899,0.559718815851556,0.10803591335080229,0.46641658728547797,0.6763863881589919
1709730683258730000,3.71972998046875,-2.914803981781006,-2.261096477508545,-3.418585777282715,0.3878142237663269,-0.7242928743362427,-0.5700875520706177,-0.8410308361053467,0.32587069272994995,0.43947237730026245,0.5773445131819314,0.10032371709738196,0.4526492761999536,0.6720988925042289
1709730683268749000,3.7297490234375,-3.295530080795288,-2.280484914779663,-3.7386016845703125,0.3998633623123169,-0.6918824315071106,-0.6011720895767212,-0.8496466875076294,0.38649308681488037,0.4261842966079712,0.5959049425756187,0.0908142512634567,0.4372261581995086,0.6674453284593784
1709730683278768000,3.73976806640625,-3.5923686027526855,-2.2660224437713623,-4.05344820022583,0.41208404302597046,-0.6547489762306213,-0.6336328387260437,-0.8432211875915527,0.5014592409133911,0.3986932039260864,0.6152540800398596,0.07959343927270546,0.4205335534680406,0.6620263807177486
1709730683288787000,3.749786865234375,-3.812117099761963,-2.237076759338379,-4.2679853439331055,0.42391225695610046,-0.6130668520927429,-0.6666688919067383,-0.8283770084381104,0.6076958179473877,0.3596315383911133,0.6350314562286233,0.0667897835842199,0.4027464338403637,0.6557967863852032
1709730683298806000,3.759805908203125,-3.9233319759368896,-2.1898062229156494,-4.362966537475586,0.43432703614234924,-0.5679795145988464,-0.6991131901741028,-0.8190774321556091,0.6616228222846985,0.3777173161506653,0.6546704733131199,0.052992829250242415,0.3842332201700156,0.6488166809017027
1709730683308825900,3.769825927734375,-3.9197371006011963,-2.1302332878112793,-4.497832298278809,0.4429391920566559,-0.5204321146011353,-0.7300378680229187,-0.8612131476402283,0.6494299173355103,0.3810998797416687,0.673940247856524,0.038632657825524844,0.3653608803059933,0.640955157979582
1709730683318845000,3.779844970703125,-4.00788688659668,-2.0182509422302246,-4.685880184173584,0.4502638876438141,-0.4703623354434967,-0.7589609622955322,-0.8815688490867615,0.6431070566177368,0.3367807865142822,0.6928793649371309,0.02350623838489964,0.3463624757568637,0.6319800489649058
1709730683328863700,3.78986376953125,-4.105588436126709,-1.8978233337402344,-4.898284912109375,0.4563775658607483,-0.417157918214798,-0.7859382033348083,-0.8523126840591431,0.6860635876655579,0.3178747892379761,0.7115646504947263,0.007310272803702308,0.3270741029860472,0.6218077952178415
1709730683338882800,3.7998828125,-4.230037689208984,-1.7449448108673096,-5.062007904052734,0.46122947335243225,-0.360965758562088,-0.8105375170707703,-0.8482381701469421,0.7146950364112854,0.29743021726608276,0.7298093672877259,-0.01000833236992799,0.30762165076334363,0.6104481270880208
1709730683348902000,3.80990185546875,-4.435354232788086,-1.5975960493087769,-5.262375354766846,0.4645783305168152,-0.301332950592041,-0.832685649394989,-0.8553712368011475,0.683168888092041,0.2957136034965515,0.7475058823861785,-0.02867893070135356,0.2878101765939951,0.5979779805737214
1709730685583161600,6.04416162109375,-0.8361678123474121,-1.2414735555648804,-1.1632874011993408,0.2788226306438446,-0.871100127696991,-0.40428003668785095,-0.3320911228656769,0.07282143831253052,0.17722925543785095,0.48911937641118236,0.16832090465710933,0.5191609127728107,0.6803691313893131
1709730685593180700,6.0541806640625,-0.7937042117118835,-1.3116950988769531,-1.2247198820114136,0.28407925367355347,-0.8644226789474487,-0.4148160219192505,-0.39604827761650085,0.08424079418182373,0.201910138130188,0.4971766879106854,0.16754980265425595,0.5143141579871682,0.6783975695219399
1709730685603199700,6.06419970703125,-0.8091252446174622,-1.437904953956604,-1.2947996854782104,0.2890981435775757,-0.8574066758155823,-0.42576512694358826,-0.45998135209083557,0.14051836729049683,0.23731908202171326,0.5056564354282126,0.1669814088902265,0.5091509045965035,0.6761612820069727
1709730685613218600,6.074218505859375,-0.844853937625885,-1.5171523094177246,-1.4073562622070312,0.2942490577697754,-0.8499342799186707,-0.43706873059272766,-0.5220475196838379,0.17685389518737793,0.21685385704040527,0.5146375156412808,0.1664595565643989,0.5037428429243268,0.6735595816615555
1709730685623237600,6.084237548828125,-0.9645049571990967,-1.637877106666565,-1.5457370281219482,0.2997576594352722,-0.8415451645851135,-0.44938501715660095,-0.531386137008667,0.15926378965377808,0.18623194098472595,0.5243141627252207,0.16572419407912786,0.49783831612697554,0.6706616048993118
1709730685633256700,6.094256591796875,-1.1977061033248901,-1.728832483291626,-1.7458992004394531,0.30579277873039246,-0.8316370844841003,-0.4635413587093353,-0.5328435897827148,0.13133496046066284,0.15743476152420044,0.5348843463032159,0.16445523807295256,0.49110467172206074,0.6675847830027776
1709730685643275800,6.10427587890625,-1.4553557634353638,-1.8154288530349731,-1.9288204908370972,0.3126775324344635,-0.8196847438812256,-0.479947566986084,-0.5503942370414734,0.12081700563430786,0.15076971054077148,0.5464304952428707,0.16228085401917675,0.48341611511318183,0.6643700159811238
1709730685653295600,6.114295654296875,-1.8053336143493652,-1.9086480140686035,-2.1262168884277344,0.3199883997440338,-0.8052654266357422,-0.4991541802883148,-0.5837671160697937,0.12153440713882446,0.17675119638442993,0.5589368181868948,0.1591035493999915,0.4744564986237049,0.6611857636925429
1709730685663314700,6.124314697265625,-2.0187149047851562,-2.021267890930176,-2.348295211791992,0.3278600573539734,-0.7881891131401062,-0.5208317041397095,-0.6189672946929932,0.1124841570854187,0.21249735355377197,0.5724564250358767,0.15487278303698687,0.4643259293056562,0.6578065221900137
1709730685673333800,6.134333740234375,-2.082407236099243,-2.058769941329956,-2.533148765563965,0.33596768975257874,-0.769059419631958,-0.5437583923339844,-0.6165311336517334,0.12617623805999756,0.2654228210449219,0.5867539940127221,0.14999495619157172,0.45345598629200357,0.6539103904844819
1709730685683352800,6.144352783203125,-2.017127275466919,-2.1426894664764404,-2.6957943439483643,0.3442629873752594,-0.748753547668457,-0.5664371848106384,-0.5781344175338745,0.2047167420387268,0.41297948360443115,0.6015490733466404,0.1448790418536557,0.4424833120185772,0.6491203516003782
1709730685693371600,6.15437158203125,-2.129523992538452,-2.1739273071289062,-2.7971549034118652,0.35195213556289673,-0.7271706461906433,-0.5893662571907043,-0.5839163064956665,0.3388803005218506,0.47451335191726685,0.6166209309849252,0.1395565183758586,0.4310926294062899,0.643787035250964
1709730685703390700,6.164390625,-2.185441493988037,-2.1386170387268066,-3.012679100036621,0.35981374979019165,-0.7038648128509521,-0.6124609708786011,-0.5661431550979614,0.43765997886657715,0.3767431974411011,0.6320154967822073,0.1335627780341867,0.4194406891703728,0.6377985239188378
1709730685713409500,6.174409423828125,-2.3978476524353027,-2.119377374649048,-3.1961796283721924,0.3679865002632141,-0.678230345249176,-0.6360735297203064,-0.5142267942428589,0.4163743257522583,0.2703660726547241,0.647795720829229,0.12657518914148227,0.40735975464470137,0.6311873355697799
1709730685723428600,6.1844287109375,-2.6875534057617188,-2.0360777378082275,-3.3712480068206787,0.3763076364994049,-0.6494923233985901,-0.6607210636138916,-0.4939223825931549,0.3503285050392151,0.1086275577545166,0.6638521679778108,0.11818062569640768,0.3945539416720383,0.6242281882664278
1709730685733447400,6.194447509765625,-2.939042806625366,-1.9218047857284546,-3.5656330585479736,0.3849537968635559,-0.6172613501548767,-0.686147928237915,-0.5075887441635132,0.3381476402282715,-0.02845168113708496,0.6800835737232257,0.10812392409681917,0.38109741328335883,0.616895769260379
1709730685743466500,6.204466552734375,-3.244656801223755,-1.8261853456497192,-3.7816293239593506,0.39389416575431824,-0.5812634229660034,-0.7120254039764404,-0.5359230041503906,0.3725079894065857,-0.10991978645324707,0.696453479839841,0.09632692331505248,0.3670264407883392,0.609069193768467
1709730685753485600,6.214485595703125,-3.3489990234375,-1.7608731985092163,-3.8845648765563965,0.4025420844554901,-0.541852593421936,-0.7378045916557312,-0.5531005859375,0.44369280338287354,-0.0899389386177063,0.7128269621712366,0.0831280905144539,0.3524023555208265,0.6006496582153111
1709730685763505700,6.224505615234375,-3.448875665664673,-1.6312358379364014,-3.8926844596862793,0.41004621982574463,-0.5005432963371277,-0.7624424695968628,-0.5420957803726196,0.5468079447746277,0.022879481315612793,0.7286741865131148,0.06925498027225002,0.33761295584103923,0.5918236058019958
1709730685773524500,6.2345244140625,-3.476260185241699,-1.5769850015640259,-3.982520341873169,0.41656091809272766,-0.45723897218704224,-0.7857540845870972,-0.44541534781455994,0.665613055229187,0.14352691173553467,0.7439532284030793,0.054587826262715605,0.3227121640480975,0.5825894385509247
1709730685783543600,6.24454345703125,-3.318671226501465,-1.4417017698287964,-4.091905117034912,0.42203354835510254,-0.41328492760658264,-0.8068972826004028,-0.3203184902667999,0.7732855677604675,0.16259491443634033,0.7588521386968211,0.0398851872547445,0.3081566422167292,0.5723566581274601
1709730685793562600,6.254562744140625,-3.4100534915924072,-1.2299717664718628,-4.226305961608887,0.42738085985183716,-0.36807894706726074,-0.8257502317428589,-0.25198110938072205,0.7377536296844482,0.08852183818817139,0.7731959031237892,0.024490624907147027,0.2941514588050227,0.5612871148619984
1709730685803581700,6.264581787109375,-3.458047866821289,-1.0167790651321411,-4.432457447052002,0.43293166160583496,-0.3207405209541321,-0.8424344062805176,-0.25907304883003235,0.6154030561447144,-0.027545452117919922,0.787141294332116,0.007978591541028061,0.2805693323079835,0.5492046601118632
1709730688338415000,8.7994150390625,-5.450136184692383,-1.8567044734954834,-6.938322067260742,0.4954785704612732,-0.18131351470947266,-0.8494859933853149,-1.431941032409668,0.8793268203735352,0.30871450901031494,0.7822362965096843,-0.07315856729773025,0.2643952339985453,0.559329466081867
1709730688348434200,8.80943408203125,-5.2605061531066895,-1.5384669303894043,-7.116095542907715,0.49085330963134766,-0.10051394999027252,-0.8654247522354126,-1.4317865371704102,0.9026532173156738,0.2901836633682251,0.8014026895091059,-0.0986332073809896,0.23991480434991339,0.5389491981185744
1709730688358453000,8.819452880859375,-5.0098876953125,-1.3110207319259644,-7.342876434326172,0.48277547955513,-0.0204068161547184,-0.8755064010620117,-1.4101741313934326,0.9603177309036255,0.25839513540267944,0.8192728003491643,-0.12398182479659386,0.21650709189129225,0.5162802931353456
1709730688368472000,8.82947216796875,-4.851178169250488,-1.078532338142395,-7.573540210723877,0.47082462906837463,0.058547042310237885,-0.8802819848060608,-1.3440393209457397,1.0099496841430664,0.1860986351966858,0.835959242573498,-0.14903566902962212,0.19402929913898306,0.4912362419811782
1709730688378492200,8.8394921875,-4.491604328155518,-0.8306505084037781,-7.779402732849121,0.4548978805541992,0.13571889698505402,-0.8801410794258118,-1.2388639450073242,1.0313953161239624,0.15389901399612427,0.8514250203707514,-0.17368564255939453,0.1725188959666504,0.46383820673871784
1709730688388511200,8.84951123046875,-4.181466102600098,-0.6207777261734009,-7.741422176361084,0.43516379594802856,0.20823316276073456,-0.8759403228759766,-1.1325057744979858,1.0074803829193115,0.14386940002441406,0.8655279845387446,-0.19687776893940784,0.15254177461635768,0.4345474230396401
1709730688398530300,8.8595302734375,-4.242392063140869,-0.5533499717712402,-7.680448055267334,0.4113124907016754,0.2777896225452423,-0.8681330680847168,-1.05009126663208,0.9483913779258728,0.13244575262069702,0.8777265041309265,-0.21958865207783637,0.13309509648110904,0.40455257451839755
1709730688408549000,8.869549072265626,-3.921839952468872,-0.40755122900009155,-7.736091613769531,0.3830057978630066,0.34397584199905396,-0.8573139309883118,-1.0137431621551514,1.0060607194900513,0.17013436555862427,0.8883197945289035,-0.24155048908029608,0.11400179291141836,0.37355690701280336
1709730688418568200,8.879568115234376,-3.596726179122925,-0.18111974000930786,-7.719519138336182,0.351510226726532,0.40438780188560486,-0.8443406224250793,-0.9768307209014893,1.1292883157730103,0.22111058235168457,0.8975933319747936,-0.2618560861587816,0.09623457587641769,0.3413157489467149
1709730688428587300,8.889587158203126,-3.2876317501068115,-0.0793321281671524,-7.711757183074951,0.31705453991889954,0.4591802954673767,-0.8298372626304626,-0.8872449994087219,1.274111270904541,0.26762717962265015,0.9055198987985311,-0.2806234001078608,0.07957309631462244,0.30814339028591664
1709730688438606000,8.899606201171874,-3.0651750564575195,0.036841295659542084,-7.617491245269775,0.2796337306499481,0.5081914067268372,-0.8145836591720581,-0.745408296585083,1.4329249858856201,0.3392266035079956,0.9121435448273751,-0.2977378356939224,0.06372094544368152,0.27438305557778664
1709730688448625200,8.909625244140624,-3.0282037258148193,0.17376504838466644,-7.466134071350098,0.24041785299777985,0.5523790717124939,-0.798170804977417,-0.5844882726669312,1.4847607612609863,0.3547656536102295,0.9171950021945728,-0.3139073715846565,0.04875209682951156,0.24049688977854583
1709730688458644200,8.919644287109374,-3.1938326358795166,0.1503954976797104,-7.194716453552246,0.19966401159763336,0.5930768251419067,-0.7799962162971497,-0.48158544301986694,1.4022233486175537,0.31741082668304443,0.9203960489122985,-0.3298915797123087,0.03425527287453319,0.20704859569618983
1709730688468664000,8.9296640625,-3.5373568534851074,-0.17500123381614685,-6.677901268005371,0.15711897611618042,0.6314835548400879,-0.7593037486076355,-0.4302360713481903,1.237687587738037,0.3113362193107605,0.9213487041809852,-0.34637378472967834,0.019322044628481607,0.17540919888255313
1709730688478683100,8.93968310546875,-3.778515100479126,-0.4567049741744995,-6.153080463409424,0.11286253482103348,0.6676706075668335,-0.7358518838882446,-0.41375061869621277,1.1850361824035645,0.31924116611480713,0.9200027400761902,-0.3634041407647098,0.003391194359574122,0.14669992407138693
1709730688488702000,8.949701904296875,-3.4489660263061523,-0.38954830169677734,-5.783548831939697,0.06888680160045624,0.6995031833648682,-0.7113015651702881,-0.38741403818130493,1.4820306301116943,0.3542001247406006,0.9171954021291829,-0.37973931640976444,-0.012135474697330204,0.12001392054573574
1709730688498721000,8.959720947265625,-2.892284870147705,-0.03541383147239685,-5.585524559020996,0.026643279939889908,0.7244056463241577,-0.6888588666915894,-0.317323237657547,2.0596060752868652,0.23706144094467163,0.9141018906374441,-0.3935714703852537,-0.02592404014120142,0.09405878348519955
1709730688508740000,8.969739990234375,-2.8103415966033936,0.3135385811328888,-5.244470119476318,-0.012206665240228176,0.7439156770706177,-0.668161928653717,-0.16365087032318115,2.4149739742279053,0.08358246088027954,0.910706646366019,-0.40562770980040663,-0.0372181555153316,0.06851476916269818
1709730688518759000,8.979759033203125,-3.0964748859405518,0.4828655421733856,-4.87460994720459,-0.04770515114068985,0.7618118524551392,-0.6460393071174622,0.08753059804439545,2.3676741123199463,-0.022173523902893066,0.9061341807864535,-0.4180960241178107,-0.04664819944389661,0.044049575384270574
1709730688528778000,8.989778076171875,-3.3562941551208496,0.7176386713981628,-4.564749717712402,-0.0803428515791893,0.7793207168579102,-0.6214533448219299,0.3179832398891449,2.0807714462280273,-0.12399959564208984,0.9001677561375023,-0.43162738566396214,-0.054508153372113094,0.020608181380303795
1709730688538797000,8.999797119140625,-3.467043876647949,0.8946002721786499,-4.28005838394165,-0.11026078462600708,0.7959736585617065,-0.5952045917510986,0.4247749447822571,1.746567726135254,-0.15607714653015137,0.8930834582951701,-0.44577203572312313,-0.060704256199796074,-0.002055817905122827
1709730688548816100,9.009816162109376,-3.1372880935668945,0.8298737406730652,-3.8945586681365967,-0.13821221888065338,0.810343325138092,-0.5694217085838318,0.4038829803466797,1.4910939931869507,-0.205297589302063,0.8855324960436608,-0.45928140655474053,-0.06595258903651224,-0.023303678961792116
1709730688558836200,9.019836181640626,-2.7060999870300293,0.9515617489814758,-3.4187304973602295,-0.16316057741641998,0.8210831880569458,-0.5469927191734314,0.4538862705230713,1.3813245296478271,-0.2802167534828186,0.8784587808278568,-0.47073441657082404,-0.0700909124514763,-0.04250445676489511
1709730688568855000,9.02985498046875,-2.3429977893829346,1.1366547346115112,-3.106203556060791,-0.18441475927829742,0.8290333151817322,-0.5279156565666199,0.5931824445724487,1.4066386222839355,-0.3228381872177124,0.8719747798690051,-0.4803853754627736,-0.07260906591152932,-0.06014776903052615
1709730688578874000,9.0398740234375,-2.0176749229431152,1.278607964515686,-2.8729069232940674,-0.20306052267551422,0.834520161151886,-0.5121937990188599,0.575283408164978,1.4240399599075317,-0.3077525496482849,0.8661291015876679,-0.48831201147878645,-0.0738545486700469,-0.07692354272450948
1709730688588893200,9.04989306640625,-1.8593782186508179,1.260752558708191,-2.6059131622314453,-0.21955254673957825,0.8385032415390015,-0.4987073242664337,0.5087676048278809,1.234937310218811,-0.40568113327026367,0.8606837501264436,-0.49510634113561636,-0.07427013713294452,-0.09261278199708757
1709730688598912300,9.059912353515625,-1.8361355066299438,1.253368616104126,-2.394211530685425,-0.2343580573797226,0.8419091105461121,-0.4860711395740509,0.5683271884918213,0.9799291491508484,-0.4707617461681366,0.8553063638268054,-0.5014616306182936,-0.07416642800739176,-0.1071747208539429
1709730688608931000,9.06993115234375,-1.6543712615966797,1.2032498121261597,-2.169883966445923,-0.24780765175819397,0.8448598384857178,-0.47413402795791626,0.6125690340995789,0.8727761507034302,-0.46303030848503113,0.8499985474110462,-0.5074443875835045,-0.07371011026758838,-0.12070354602809524
1709730688618950100,9.0799501953125,-1.3065561056137085,1.2037310600280762,-1.8093383312225342,-0.25908219814300537,0.8467732667922974,-0.4645983576774597,0.5280641317367554,0.9037914276123047,-0.46469247341156006,0.84538097914274,-0.5122541429393811,-0.07277714729994071,-0.13277916862259823
1709730688628969200,9.08996923828125,-1.0264719724655151,1.2386749982833862,-1.4762376546859741,-0.26731017231941223,0.8477920889854431,-0.45803266763687134,0.44850829243659973,0.9553238153457642,-0.47704124450683594,0.8417180607573116,-0.5156949974836328,-0.07100942047122759,-0.14327302288985255
1709730688638988000,9.099988037109375,-0.7641522288322449,1.2374860048294067,-1.2297676801681519,-0.2731609344482422,0.8482578992843628,-0.4536978602409363,0.4130687117576599,0.949380099773407,-0.4509652853012085,0.8388073695221355,-0.5181113843436235,-0.068641513277764,-0.15248353098440728
1709730688649007000,9.110007080078125,-0.4816320836544037,1.2288496494293213,-0.9736189842224121,-0.27693453431129456,0.8479967713356018,-0.45189470052719116,0.38948336243629456,0.8534191846847534,-0.4136449098587036,0.8367645755633285,-0.5193435303222618,-0.0658403085135736,-0.16053811780231309
1709730688659027200,9.120027099609375,-0.2750844955444336,1.188230037689209,-0.7554165720939636,-0.27877557277679443,0.8473110198974609,-0.4520489275455475,0.4029821455478668,0.7253513336181641,-0.3762286901473999,0.8354647563220813,-0.5196559028836705,-0.06271586470342316,-0.16740095642926855
1709730688669046300,9.13004638671875,-0.07847264409065247,1.1545101404190063,-0.572629988193512,-0.2790893316268921,0.8462534546852112,-0.45383283495903015,0.413778692483902,0.6736440062522888,-0.30703145265579224,0.8347990435147707,-0.5191882912175856,-0.059389402505279944,-0.17328289351456255
1709730688679065300,9.1400654296875,0.04900221899151802,1.0910038948059082,-0.4141833484172821,-0.27813225984573364,0.8449108004570007,-0.456911563873291,0.40667232871055603,0.649183988571167,-0.25025704503059387,0.8346718665761711,-0.5180854766654304,-0.0559612532590216,-0.17826564838604028
1709730688689084200,9.150084228515626,0.1302049309015274,1.0392323732376099,-0.25667229294776917,-0.2760978937149048,0.8435508012771606,-0.4606430232524872,0.4129692316055298,0.6000832319259644,-0.2109268307685852,0.8348953789286448,-0.516647806228602,-0.05247407312765313,-0.1824039268948027
1709730688699103200,9.160103271484376,0.17151615023612976,0.9593465328216553,-0.12658274173736572,-0.27306246757507324,0.8423527479171753,-0.4646275043487549,0.41477084159851074,0.5218134522438049,-0.1721675992012024,0.835349530086357,-0.5150672768584272,-0.048907564222444425,-0.18575500388956753
1709730688709122300,9.170122314453126,0.26960116624832153,0.9029884934425354,0.0013680425472557545,-0.26924729347229004,0.8411133885383606,-0.4690779745578766,0.40190720558166504,0.42438948154449463,-0.1223984956741333,0.8360954940957711,-0.5132261726702256,-0.04538620583365802,-0.18837004943770871
1709730688719141000,9.18014111328125,0.28688669204711914,0.8049503564834595,0.10091966390609741,-0.2647668719291687,0.8399596214294434,-0.4736732244491577,0.3859827518463135,0.36095279455184937,-0.07654348015785217,0.8370380041940526,-0.5112776937534602,-0.04193464518892755,-0.1902734119180502
1709730688729160200,9.19016015625,0.3689575791358948,0.7586776614189148,0.1810440570116043,-0.25987231731414795,0.8387318253517151,-0.4785345196723938,0.35507190227508545,0.34446513652801514,-0.0459253191947937,0.8381821649324466,-0.5091572664988107,-0.03862147916994488,-0.19161923459507463
1709730688739180000,9.200179931640625,0.36681532859802246,0.6614521145820618,0.2441314160823822,-0.2546381652355194,0.8375220894813538,-0.4834417998790741,0.3190608024597168,0.3020041584968567,-0.0447106659412384,0.839453476304415,-0.5069745103970411,-0.035439397997889026,-0.19245415845116373
1709730688749199000,9.21019921875,0.39789894223213196,0.6010979413986206,0.29620474576950073,-0.24934011697769165,0.8363348841667175,-0.48823508620262146,0.28712087869644165,0.2292473316192627,-0.04197734594345093,0.8407880171139641,-0.5048038664446374,-0.032488684524945105,-0.19285502126856424
1709730688759218200,9.22021826171875,0.3769689202308655,0.5445927977561951,0.3467366099357605,-0.24380750954151154,0.8352078199386597,-0.4929358959197998,0.25029250979423523,0.19170862436294556,-0.026091814041137695,0.8421804999280742,-0.5026468994989293,-0.02963350027822165,-0.1928729738358511
1709730688769237000,9.230237060546875,0.36066505312919617,0.48973435163497925,0.3678738474845886,-0.2382919192314148,0.8342540860176086,-0.49722933769226074,0.2231704741716385,0.18831360340118408,-0.010064363479614258,0.8435140211593342,-0.5006598009252279,-0.02692747738036593,-0.1926103409871402
1709730688779256000,9.240256103515625,0.33392342925071716,0.4654681384563446,0.4015050530433655,-0.23268495500087738,0.8334187865257263,-0.5012692809104919,0.19919192790985107,0.1785135269165039,0.004229426383972168,0.8448214901534195,-0.49877410786163723,-0.02428483172338274,-0.19212329975989625
1709730688789275100,9.250275146484375,0.26824456453323364,0.4072865843772888,0.4168089032173157,-0.22705157101154327,0.8328419923782349,-0.5047988295555115,0.19517599046230316,0.12147319316864014,0.0282362699508667,0.8460177818198243,-0.4971217790475005,-0.021691670478916916,-0.19145057456944492
1709730688799294200,9.260294189453125,0.2703673541545868,0.3516501188278198,0.4254154562950134,-0.22165127098560333,0.8324428200721741,-0.5078479647636414,0.18962307274341583,0.06117284297943115,0.05693542957305908,0.847116023261877,-0.49568436373309055,-0.019314007575640068,-0.1905737487398645
1709730688809313000,9.27031298828125,0.2988775670528412,0.3351976275444031,0.4354494512081146,-0.216318741440773,0.8319393396377563,-0.5109629034996033,0.1762339174747467,0.04148894548416138,0.06133216619491577,0.8482595102692331,-0.49419365089735173,-0.01706373701707863,-0.18957121733103188
1709730688819332000,9.28033203125,0.28210070729255676,0.3153071105480194,0.42427587509155273,-0.21105420589447021,0.8313338160514832,-0.514140248298645,0.14510571956634521,0.04282689094543457,0.046717703342437744,0.849430567694914,-0.4926539835031906,-0.014897663835021314,-0.18851481620863478
1709730688829351200,9.29035107421875,0.24691584706306458,0.3079370856285095,0.41147884726524353,-0.20597456395626068,0.8308522701263428,-0.5169708728790283,0.09824752807617188,0.01779574155807495,0.04600834846496582,0.8504907996074552,-0.49127477068529507,-0.012793226339455024,-0.18748522248993896
1709730688839371300,9.300371337890626,0.21069657802581787,0.28260722756385803,0.39474940299987793,-0.20106931030750275,0.8304979205131531,-0.519465446472168,0.06343503296375275,-0.02199578285217285,0.03209972381591797,0.851447423610252,-0.49005270613794594,-0.010753443558257135,-0.18646700718757178
1709730688849390000,9.31039013671875,0.20710211992263794,0.2787398099899292,0.35705530643463135,-0.1964925229549408,0.8301671147346497,-0.5217405557632446,0.023290008306503296,-0.04121142625808716,0.012417435646057129,0.852317402745328,-0.48892909177301114,-0.008834806320976229,-0.18554060895544627
1709730688859409000,9.320408935546874,0.24722342193126678,0.2822467088699341,0.32241955399513245,-0.19221231341362,0.8296468257904053,-0.5241568684577942,-0.033541470766067505,-0.005168735980987549,-0.0005013346672058105,0.8531919787720019,-0.4877215470768742,-0.0070176759986722015,-0.18477497210569677
1709730688869428000,9.330427978515624,0.3150072693824768,0.2905310094356537,0.3062581717967987,-0.18809698522090912,0.8287603855133057,-0.5270443558692932,-0.08456230163574219,0.02370232343673706,-0.018381059169769287,0.8541792256969236,-0.48626109467900663,-0.005289669990134524,-0.1841195344838441
1709730688879447000,9.340447021484374,0.3479745388031006,0.2697628438472748,0.2873673141002655,-0.18414047360420227,0.827572226524353,-0.5302984714508057,-0.11966201663017273,-0.011059165000915527,-0.017354726791381836,0.855259169253291,-0.4846001846486522,-0.0036652102565913973,-0.1835235222897855
1709730688889466000,9.350466064453125,0.4763365089893341,0.2508791983127594,0.28268226981163025,-0.1804247945547104,0.8259252309799194,-0.5341294407844543,-0.14676940441131592,-0.03857177495956421,-0.008259475231170654,0.8565055985305369,-0.48262843869531535,-0.002248580793947252,-0.18292846279588393
1709730688899485000,9.36048486328125,0.5983822345733643,0.2666504979133606,0.2975429594516754,-0.1766514927148819,0.8235355019569397,-0.5390579700469971,-0.1717524379491806,-0.04323160648345947,-0.03183436393737793,0.8580757563714175,-0.4800730361966824,-0.0009395009783910992,-0.18230472265380976
1709730688909504000,9.37050390625,0.6590788960456848,0.2659396827220917,0.28360798954963684,-0.1727847456932068,0.8206083178520203,-0.5447453260421753,-0.18617825210094452,-0.059454143047332764,-0.03992569446563721,0.8598629228049601,-0.47710294751820975,0.0003358807602634324,-0.18168235682015213
1709730688919523800,9.38052392578125,0.7824727296829224,0.22155404090881348,0.25333157181739807,-0.16925016045570374,0.8171707391738892,-0.5509867668151855,-0.20188938081264496,-0.06880342960357666,-0.02571922540664673,0.861793694859203,-0.4738192810259646,0.0013851821925210022,-0.1811214142098976
1709730688929543000,9.39054296875,0.9819884896278381,0.18538086116313934,0.2615511417388916,-0.16602833569049835,0.8126749396324158,-0.558564305305481,-0.21466319262981415,-0.08270972967147827,-0.03919881582260132,0.8641212124795171,-0.46980167661187866,0.002060293705645923,-0.180490017868101
1709730688939561700,9.400561767578125,1.1641181707382202,0.11829578131437302,0.21566009521484375,-0.16318345069885254,0.8070787191390991,-0.5674461722373962,-0.23479628562927246,-0.09997117519378662,-0.08640819787979126,0.8668252320981474,-0.4650498723214125,0.0023489735090061843,-0.17982560070821008
1709730688949580800,9.410580810546875,1.4854780435562134,0.026094749569892883,0.1651039719581604,-0.16121512651443481,0.7998017072677612,-0.578210175037384,-0.2777344584465027,-0.0990418791770935,-0.13425326347351074,0.8700550099149038,-0.4592288974658138,0.0019334305768226169,-0.17919114939443134
1709730688959599900,9.420599853515625,1.9657964706420898,0.1185416430234909,0.1723214089870453,-0.15967130661010742,0.7899230122566223,-0.5920528769493103,-0.3072018325328827,-0.11697995662689209,-0.18738126754760742,0.8741325372719138,-0.4516332546263177,0.0009748794532322581,-0.17865784547741023
1709730688969619000,9.430618896484376,2.060340642929077,0.12945501506328583,0.11477449536323547,-0.15761502087116241,0.7780100107192993,-0.6081593632698059,-0.3333212435245514,-0.15792346000671387,-0.2677561640739441,0.8788153486117337,-0.4426288760631249,0.00008958677984163625,-0.17822208651796223
1709730690662850600,11.1238505859375,-0.3866856098175049,-0.5129237174987793,-1.1388057470321655,0.11411942541599274,-0.9478554725646973,-0.29756787419319153,-0.33024492859840393,0.06748443841934204,0.13146066665649414,0.41975119110985165,0.24616181520484204,0.539092217860505,0.6874538577738362
1709730690672869400,11.133869384765624,-0.4339601695537567,-0.5664982795715332,-1.3214848041534424,0.12418489158153534,-0.9451739192008972,-0.30203384160995483,-0.39396029710769653,0.07665890455245972,0.16214126348495483,0.4259376301938233,0.2438377589621016,0.5380764089251804,0.6852693556397134
1709730690682888400,11.143888427734375,-0.5373366475105286,-0.6432473659515381,-1.524905800819397,0.13577871024608612,-0.941838264465332,-0.30741655826568604,-0.4626677632331848,0.08028119802474976,0.21122506260871887,0.43302414792255955,0.24103312733036236,0.5368377383279673,0.6827872639257825
1709730690692907500,11.153907470703125,-0.6774929165840149,-0.737468421459198,-1.7631261348724365,0.14908525347709656,-0.9376073479652405,-0.31411153078079224,-0.530310869216919,0.10945188999176025,0.27956563234329224,0.44120892678377344,0.23765395759943342,0.53522409280996,0.6799929804657878
1709730690702926300,11.16392626953125,-0.8993321657180786,-0.8736078143119812,-1.9860377311706543,0.16410447657108307,-0.9321826696395874,-0.3226531744003296,-0.5588036179542542,0.14144176244735718,0.3203490674495697,0.4506474272678351,0.2336193734053265,0.5330059986727901,0.676936763373693
1709730690712945400,11.1739453125,-1.1400991678237915,-1.034569263458252,-2.188432216644287,0.1804145872592926,-0.9251965284347534,-0.33385932445526123,-0.5575661063194275,0.18311583995819092,0.37923890352249146,0.4614400339445611,0.22892955204519952,0.5297750381706521,0.6737973102993057
1709730690722964500,11.183964599609375,-1.403883934020996,-1.2548301219940186,-2.318615198135376,0.19732527434825897,-0.9166317582130432,-0.3476332128047943,-0.5499101281166077,0.2248135805130005,0.4470289647579193,0.47347535196463025,0.22386363522624866,0.525422177858589,0.6705502242000284
1709730690732984600,11.193984619140625,-1.6479873657226562,-1.4434877634048462,-2.449920415878296,0.21429388225078583,-0.9061749577522278,-0.36458906531333923,-0.5302271246910095,0.22819644212722778,0.5157731175422668,0.48675529797286604,0.21843582707972165,0.5196068279567292,0.6673558895483697
1709730690743003600,11.204003662109375,-1.7211990356445312,-1.5897704362869263,-2.467653751373291,0.23081457614898682,-0.8944199681282043,-0.38306349515914917,-0.5008341073989868,0.23125779628753662,0.5481177568435669,0.5006704074244592,0.21297272013154472,0.5129433438329551,0.6639736137829225
1709730690753022500,11.2140224609375,-2.0169689655303955,-1.7669161558151245,-2.600182294845581,0.2466510683298111,-0.8810352683067322,-0.4036582410335541,-0.5170826315879822,0.19985252618789673,0.5261558294296265,0.5153103262394148,0.20737889357835174,0.5051384638150269,0.6605182098643246
1709730690763041500,11.22404150390625,-2.2885119915008545,-1.843887448310852,-2.81256103515625,0.2627857029438019,-0.8651385307312012,-0.42717549204826355,-0.6052234768867493,0.19239383935928345,0.5309200286865234,0.5309716738864843,0.2008949509398844,0.49603777533081567,0.6570058577129899
1709730690773060600,11.234060546875,-2.464569568634033,-2.032154083251953,-3.011334180831909,0.27930495142936707,-0.8467273116111755,-0.4528152048587799,-0.6702656745910645,0.2599353790283203,0.5624343156814575,0.5476348994459129,0.19361791165920056,0.4859058613482347,0.6530724739872111
1709730690783079400,11.244079345703126,-2.5239949226379395,-2.148184299468994,-3.1450934410095215,0.2952941954135895,-0.8261544108390808,-0.4798647165298462,-0.6691346168518066,0.3263070583343506,0.5607668161392212,0.565119557769112,0.18608000280948545,0.4748072035622189,0.6485153274886276
1709730690793098500,11.254098388671874,-2.7006664276123047,-2.1815710067749023,-3.318220376968384,0.3109115660190582,-0.8035492300987244,-0.5075851082801819,-0.6598495244979858,0.38951730728149414,0.5895400047302246,0.5829936482019175,0.17805714586503243,0.4631447929189727,0.6433591515308758
1709730690803117600,11.26411767578125,-3.0667059421539307,-2.1848647594451904,-3.603898048400879,0.3268432915210724,-0.7773942947387695,-0.537430465221405,-0.6868592500686646,0.4520464539527893,0.640946090221405,0.6016028989814485,0.16860728399996783,0.45039577792016905,0.6378001728422521
1709730690813137400,11.274137451171875,-3.2854819297790527,-2.1417124271392822,-3.889627695083618,0.3435018062591553,-0.7471407651901245,-0.569023072719574,-0.7106587886810303,0.534845232963562,0.6570205092430115,0.6209386417036037,0.1574005672161972,0.4367075936408075,0.6316223577025193
1709730690823156500,11.284156494140625,-3.6025209426879883,-2.1517043113708496,-4.12608528137207,0.3602389097213745,-0.7129010558128357,-0.6016644239425659,-0.688012957572937,0.5774335265159607,0.6249797940254211,0.6407632803506327,0.14469837011903447,0.42217316709289904,0.6247036635638987
1709730690833175300,11.29417529296875,-3.9092605113983154,-2.1043639183044434,-4.366708278656006,0.3765525221824646,-0.6738422513008118,-0.6357237696647644,-0.6684989929199219,0.587187647819519,0.5853545665740967,0.6609969301446402,0.13021559199872534,0.4064258967025434,0.6172072670218061
1709730690843194400,11.3041943359375,-4.230273723602295,-2.0869100093841553,-4.569116592407227,0.3920654058456421,-0.630037248134613,-0.6703266501426697,-0.6805633306503296,0.6077442169189453,0.5774311423301697,0.6813904584808238,0.11407165198680208,0.38964641419992446,0.6089913572697967
1709730690853213700,11.314213623046875,-4.511944770812988,-2.0251662731170654,-4.747183322906494,0.40615981817245483,-0.5811921954154968,-0.7051593661308289,-0.7214980125427246,0.5871889591217041,0.49034619331359863,0.7017273662419605,0.0962309093238633,0.3716986893018845,0.6001318856599329
1709730690863232800,11.324232666015625,-4.645588397979736,-2.01767635345459,-4.924243450164795,0.418437659740448,-0.5280450582504272,-0.7389711737632751,-0.7465932369232178,0.575286328792572,0.40230119228363037,0.7218157058000705,0.07713907422872818,0.3529362330899041,0.5903115690940589
1709730690873251800,11.334251953125,-4.822167873382568,-1.9444166421890259,-5.0516486167907715,0.4283617436885834,-0.47108373045921326,-0.7710942625999451,-0.7549914121627808,0.5581961870193481,0.34186452627182007,0.7414353432601285,0.05705077566279264,0.33346376094544256,0.5795004549373907
1709730690883270700,11.344270751953125,-4.83659553527832,-1.8155025243759155,-5.283361434936523,0.4363211691379547,-0.41054725646972656,-0.8006715178489685,-0.7436789870262146,0.5611515045166016,0.36877143383026123,0.7604500023084043,0.03587003661056076,0.3136520294762256,0.5674959500553104
1709730690893290800,11.354290771484376,-4.792041301727295,-1.6841732263565063,-5.521703720092773,0.4426007568836212,-0.3474849462509155,-0.8266552090644836,-0.7162366509437561,0.5911678075790405,0.41895562410354614,0.7788960304140988,0.013993142771946956,0.294069029791075,0.5537586338753264
1709730690903309800,11.364309814453126,-4.731387138366699,-1.6027262210845947,-5.7239203453063965,0.44657018780708313,-0.28238794207572937,-0.8490183353424072,-0.6571109294891357,0.6316463947296143,0.4021036624908447,0.7967039452223967,-0.008334814520841899,0.27462951387687234,0.5383046573608021
1709730690913329000,11.374328857421874,-4.662508010864258,-1.4489701986312866,-5.802876949310303,0.44778987765312195,-0.21614086627960205,-0.867621660232544,-0.5670068264007568,0.6935120820999146,0.25058674812316895,0.8135981745121436,-0.030857706317612248,0.2554152830618497,0.5214104889471911
1709730690923348000,11.384347900390624,-4.646839618682861,-1.2429677248001099,-5.857331275939941,0.44666174054145813,-0.14921750128269196,-0.8821719884872437,-0.491904079914093,0.7050188779830933,0.08461034297943115,0.8292298765674406,-0.053734224531406104,0.23669948641218191,0.503451769177146
1709730690933366800,11.39436669921875,-4.598710536956787,-1.077168345451355,-5.974526882171631,0.44323286414146423,-0.08168818801641464,-0.8926766514778137,-0.4735063314437866,0.6431200504302979,-0.02468174695968628,0.8436642295306181,-0.07700763623247013,0.21847536787042993,0.48432316152231
1709730690943385900,11.4043857421875,-4.379086971282959,-0.9596791863441467,-6.077874183654785,0.4369352161884308,-0.014716439880430698,-0.8993725776672363,-0.4503019452095032,0.5885689854621887,-0.08520078659057617,0.8570793051186646,-0.10005046729446172,0.2007576010698955,0.4637901847345585
1709730690953405000,11.414405029296875,-4.271302223205566,-0.871417760848999,-6.055707931518555,0.42766010761260986,0.05063467472791672,-0.9025203585624695,-0.37420859932899475,0.5919739603996277,-0.08237344026565552,0.8693236713018527,-0.12253595307147483,0.18364304483246702,0.442195172022278
1709730690963423700,11.424423828125,-4.013261318206787,-0.7956023812294006,-5.9461870193481445,0.4151313900947571,0.11349199712276459,-0.9026547074317932,-0.30972370505332947,0.6680021286010742,-0.03342622518539429,0.8802656116131277,-0.14416059470165773,0.1670041211343795,0.4200711709339871
1709730690973443800,11.43444384765625,-3.8102474212646484,-0.6974204182624817,-5.793155193328857,0.3998832702636719,0.17288728058338165,-0.9001129865646362,-0.2854881286621094,0.8045907020568848,-0.05585014820098877,0.8898603458475292,-0.16467393625161045,0.15108279857542284,0.3977498683506533
1709730690983463000,11.444462890625,-3.6907970905303955,-0.5428683757781982,-5.6361212730407715,0.3828704059123993,0.22884199023246765,-0.8950092792510986,-0.2278411090373993,0.962228536605835,-0.020624876022338867,0.8980983810849144,-0.18430069214502706,0.1361198940770773,0.3753981596461794
1709730690993482000,11.45448193359375,-3.49072265625,-0.4405425190925598,-5.590231895446777,0.36405786871910095,0.28202003240585327,-0.8876522779464722,-0.15989527106285095,1.0952229499816895,0.05250823497772217,0.9051755634815565,-0.20328175576178126,0.12186213219194318,0.35282214508511206
1709730691003501000,11.4645009765625,-3.4715416431427,-0.37824729084968567,-5.489887237548828,0.3434193730354309,0.3323979675769806,-0.8783932328224182,-0.1026509702205658,1.1029353141784668,0.013433516025543213,0.9111810413497695,-0.22158667760910725,0.10817911751091375,0.33006914356924816
1709730691013520000,11.474519775390625,-3.3772552013397217,-0.32755962014198303,-5.401670455932617,0.3208180367946625,0.38053396344184875,-0.86733478307724,-0.017091870307922363,0.9796039462089539,-0.01927715539932251,0.9161037327967123,-0.239480218485746,0.09477246035675459,0.30728056299717654
1709730691023539000,11.4845390625,-3.257258176803589,-0.2320386916399002,-5.268840789794922,0.2968367338180542,0.42575064301490784,-0.8547656536102295,0.0665055513381958,0.807327389717102,-0.10911679267883301,0.9200051344614426,-0.2567225113981947,0.08191894895384615,0.2845582559617852
1709730691033558000,11.49455810546875,-3.075834274291992,-0.19306865334510803,-4.930315017700195,0.2721230387687683,0.4669221043586731,-0.8413873910903931,0.1714346706867218,0.6554685831069946,-0.25518548488616943,0.922949601709833,-0.27281208183543965,0.06985605684905874,0.2624073848845779
1709730691043576800,11.504576904296876,-3.121142864227295,-0.10852500796318054,-4.797236919403076,0.24698886275291443,0.5057514905929565,-0.8265663385391235,0.27914944291114807,0.625062108039856,-0.42582929134368896,0.9247046238532006,-0.28866091393208443,0.058238414984382855,0.2412557232515454
1709730691053596700,11.5145966796875,-2.4430220127105713,0.3415886163711548,-4.616218090057373,0.22315694391727448,0.5398198962211609,-0.8116621375083923,0.24797342717647552,0.8208673596382141,-0.6079393029212952,0.925999235196721,-0.30300642013052614,0.04853899953951311,0.21990093715017756
1709730691063615700,11.52461572265625,-2.034780502319336,0.5252686738967896,-4.2057785987854,0.20231832563877106,0.5670998096466064,-0.7984141111373901,0.15604959428310394,1.042320966720581,-0.6048756837844849,0.9271031157819635,-0.3147578545278677,0.04147812488293599,0.19921556002245502
1709730691073634800,11.534634765625,-1.9752856492996216,0.5099517703056335,-3.9024131298065186,0.18305395543575287,0.5906990766525269,-0.7858535647392273,0.21193504333496094,1.1175071001052856,-0.5579727292060852,0.9276492326239386,-0.32528312861805764,0.03555407347800449,0.1799824985172215
1709730691083654000,11.54465380859375,-1.7752701044082642,0.6098003387451172,-3.6525940895080566,0.1645333170890808,0.6120031476020813,-0.7735508680343628,0.3233054280281067,1.1787683963775635,-0.4797755479812622,0.9276884980223646,-0.3351270080334869,0.030239914997688272,0.16176982376845842
1709730691093672700,11.554672607421875,-1.574092984199524,0.5926602482795715,-3.315237045288086,0.14754189550876617,0.6303895115852356,-0.7621288895606995,0.47892293334007263,1.1764341592788696,-0.41636842489242554,0.9274172481861497,-0.3438996100245651,0.02585740280637956,0.14478163110532669
1709730691103691800,11.56469189453125,-1.2978256940841675,0.5203527808189392,-3.012265205383301,0.1315285563468933,0.6456774473190308,-0.7521973848342896,0.5826895833015442,1.0547620058059692,-0.36387622356414795,0.9270293105274928,-0.35131140484824425,0.02194520560484124,0.12928823670291834
1709730691113710800,11.5747109375,-1.1748512983322144,0.41113972663879395,-2.7673768997192383,0.11617155373096466,0.6584655046463013,-0.7435908913612366,0.5876553654670715,0.8927735090255737,-0.2753605246543884,0.9265668419090616,-0.3575921223907874,0.018232532256632704,0.11519301795082472
1709730691123731000,11.58473095703125,-0.98926842212677,0.4070492386817932,-2.5611214637756348,0.10135399550199509,0.6695441007614136,-0.7358247637748718,0.5901285409927368,0.7907677292823792,-0.20547467470169067,0.9259952222478215,-0.3631433458952022,0.014647056760852392,0.10220177319797644
1709730691133749800,11.594749755859375,-0.5306118726730347,0.620836615562439,-2.3250231742858887,0.0885816141963005,0.6774364709854126,-0.7302281856536865,0.5549730658531189,0.7098621129989624,-0.290874719619751,0.9257535281577907,-0.3670665071648933,0.012169484798637107,0.08996970094362292
1709730691143768800,11.604768798828125,-0.48729369044303894,0.7094286680221558,-2.1983485221862793,0.07819442451000214,0.6828240752220154,-0.7263861894607544,0.5069343447685242,0.4781561493873596,-0.5748070478439331,0.9257726074614206,-0.36971222616306915,0.010943900982021087,0.07834647189734675
1709730691153788000,11.614787841796876,-0.41732659935951233,0.9135794043540955,-2.1655113697052,0.0689958855509758,0.6878563761711121,-0.7225601077079773,0.4723401665687561,0.20699530839920044,-0.9310196042060852,0.9256502403258042,-0.3723050897574611,0.010433249292497842,0.06672055328210418
1709730691163807000,11.624806884765626,-0.23893316090106964,1.0972262620925903,-1.984407663345337,0.06193575635552406,0.691586971282959,-0.7196328043937683,0.44956937432289124,0.09579694271087646,-1.099886178970337,0.9256187459318271,-0.37424521803062055,0.011140765270733264,0.05519316187360441
1709730691173825800,11.63482568359375,-0.122467540204525,1.1750688552856445,-1.7900663614273071,0.057043109089136124,0.6939777731895447,-0.7177332043647766,0.4613589644432068,0.06262922286987305,-1.0892584323883057,0.925691262377021,-0.37545764111448193,0.012843826517977764,0.04429830463398398
1709730691183844900,11.644844970703126,0.08070768415927887,1.1878900527954102,-1.5203635692596436,0.053981754928827286,0.695112407207489,-0.716871440410614,0.4179725646972656,0.10807967185974121,-0.9462297558784485,0.9258803040428037,-0.37594331286027205,0.015195101767514145,0.034372286123519676
1709730691193864000,11.654864013671874,0.23911677300930023,1.1103030443191528,-1.2093627452850342,0.05280169099569321,0.6946496367454529,-0.7174077033996582,0.3775724470615387,0.22096920013427734,-0.7528376579284668,0.9263016225374432,-0.37546176489495453,0.018016973070305198,0.025866002437333214
1709730691203883800,11.6648837890625,0.38739198446273804,1.037543773651123,-0.9596951603889465,0.05297555774450302,0.6929967999458313,-0.7189916968345642,0.4001952111721039,0.3100244402885437,-0.5839868783950806,0.9268994053395482,-0.3742508586080349,0.02098683869868709,0.01879779242380714
1709730691213902800,11.67490283203125,0.5239388942718506,0.9485116600990295,-0.7385055422782898,0.05431930348277092,0.690133810043335,-0.7216402888298035,0.4314747750759125,0.33859843015670776,-0.4641355276107788,0.9277135484391111,-0.3722902652694065,0.024079430257676778,0.012949137554946503
1709730691223921700,11.684921630859375,0.5975156426429749,0.8552736043930054,-0.5509185791015625,0.05641492083668709,0.6863889694213867,-0.7250431776046753,0.4333464503288269,0.2834138870239258,-0.3934260606765747,0.9286841419033444,-0.3697888522696376,0.02710378972392259,0.008211717283531851
1709730691233940700,11.694940673828125,0.5606191754341125,0.7522941827774048,-0.40783464908599854,0.05900609865784645,0.6824277639389038,-0.7285674810409546,0.41981467604637146,0.18598037958145142,-0.3579040765762329,0.9296581550618112,-0.3671739488113462,0.029992323898986543,0.004413278572647768
1709730691243959800,11.704959716796875,0.6509400010108948,0.7102037668228149,-0.22020110487937927,0.06214321404695511,0.6782256960868835,-0.7322214245796204,0.3934231996536255,0.10136103630065918,-0.3007681369781494,0.930649527596944,-0.3644362227837682,0.032795358239776855,0.0015108895974842084
1709730691253978600,11.714978515625,0.630149781703949,0.6511606574058533,-0.0739743784070015,0.06618139892816544,0.67359858751297,-0.7361283898353577,0.35058191418647766,0.046417832374572754,-0.25077956914901733,0.9316994598164523,-0.3614702292447846,0.0357084106981736,-0.0004946703203887282
1709730691263997700,11.724997802734375,0.7393327355384827,0.6341704726219177,0.0654974952340126,0.07087008655071259,0.6685584187507629,-0.740274965763092,0.2946237027645111,0.029653191566467285,-0.23164886236190796,0.9328097948343747,-0.3582818437785578,0.03868626232927332,-0.0018194683335324886
1709730691274016800,11.735016845703125,0.780482292175293,0.5812328457832336,0.20492328703403473,0.07634145766496658,0.6627598404884338,-0.7449303865432739,0.23875251412391663,0.05872142314910889,-0.2237585186958313,0.9340553153359274,-0.35466784085980585,0.04177937059195997,-0.002406515999018694
1709730691284036900,11.745036865234376,0.765892744064331,0.4907395541667938,0.29004430770874023,0.08201981335878372,0.6567993760108948,-0.7495914101600647,0.19900129735469818,0.07633954286575317,-0.2063564658164978,0.935302120669626,-0.3510039466987726,0.044727378673946314,-0.0023467116038476963
1709730691294056000,11.755055908203126,0.8037711381912231,0.4072670340538025,0.35913896560668945,0.08750385046005249,0.650597870349884,-0.7543642520904541,0.1660056710243225,0.09163534641265869,-0.1620633602142334,0.936578268637787,-0.3472359696227302,0.04738185867231659,-0.0017996212612025812
1709730691304074800,11.76507470703125,0.7706663608551025,0.3246132731437683,0.431648313999176,0.09281618893146515,0.6442611217498779,-0.7591526508331299,0.15176692605018616,0.1008712649345398,-0.13823193311691284,0.9378569363638317,-0.3434346732747531,0.04976248284448361,-0.0007628696588377584
1709730691314093800,11.77509375,0.7766073346138,0.25683316588401794,0.4987293481826782,0.09802804887294769,0.6379417181015015,-0.7638199329376221,0.1264287233352661,0.13865429162979126,-0.10963892936706543,0.9391003748022974,-0.3396964634362187,0.051926312754404576,0.0007359686093959666
1709730691324113000,11.78511279296875,0.7504782676696777,0.1938004493713379,0.5456779599189758,0.10305453091859818,0.6315258145332336,-0.7684757113456726,0.08691738545894623,0.16116821765899658,-0.04992944002151489,0.9403356076670867,-0.3359479904653744,0.053861768102126256,0.0026168598617568625
1709730691334131700,11.795131591796874,0.7415900230407715,0.18219199776649475,0.5665616393089294,0.10799849033355713,0.6251921653747559,-0.7729625701904297,0.038653723895549774,0.17352914810180664,-0.0044116973876953125,0.941519545902568,-0.33229173249873895,0.05568590327144593,0.004724399612277715
1709730691344150800,11.80515087890625,0.7679499983787537,0.11568231135606766,0.5611501336097717,0.11266854405403137,0.6187443137168884,-0.7774710655212402,-0.019422084093093872,0.1855158805847168,0.030187129974365234,0.9427022648182372,-0.3285978170696586,0.057340461922898094,0.0069364130667496585
1709730691354171000,11.8151708984375,0.7734488844871521,0.06410381197929382,0.5403777360916138,0.1167839765548706,0.6120557188987732,-0.7821440696716309,-0.0845574215054512,0.15813159942626953,0.05991506576538086,0.9439216473568338,-0.3247791839996176,0.058706522157223315,0.009168166870290852
1709730691364190000,11.82518994140625,0.7714834213256836,0.04147988185286522,0.5019145011901855,0.12037904560565948,0.6053326725959778,-0.7868171334266663,-0.12457521259784698,0.16006338596343994,0.05851513147354126,0.9451351173699649,-0.3209529324446717,0.05983842438889669,0.01132292235079302
1709730691374209000,11.835208984375,0.7530935406684875,-0.002473459579050541,0.4540385603904724,0.1233886182308197,0.5987698435783386,-0.791359543800354,-0.1490081250667572,0.16862517595291138,0.045372605323791504,0.9463099266333765,-0.317225568319789,0.06073020593057192,0.013317694420738322
1709730691384227800,11.845227783203125,0.7187938690185547,-0.07119356095790863,0.4623100757598877,0.1258379966020584,0.5922811627388,-0.7958441376686096,-0.1599108725786209,0.14889925718307495,0.05828005075454712,0.9474636843490026,-0.31355317642969266,0.06133791967311532,0.015319709283954451
1709730691394247000,11.855246826171875,0.6501285433769226,-0.13561329245567322,0.42235493659973145,0.12762704491615295,0.5862696170806885,-0.7999995350837708,-0.14242807030677795,0.12234848737716675,0.08625441789627075,0.9485240584232086,-0.3101716308198961,0.06159366391393272,0.017378925633618626
1709730691404266000,11.865265869140625,0.6053171157836914,-0.1752694696187973,0.41517266631126404,0.12877430021762848,0.5806974172592163,-0.803870439529419,-0.10416188836097717,0.13490921258926392,0.14218831062316895,0.9495043362168027,-0.30704745988887205,0.061535780558147866,0.019406313195139965
1709730691414285000,11.87528515625,0.5626769661903381,-0.1761038452386856,0.39776304364204407,0.12972736358642578,0.5754588842391968,-0.8074762225151062,-0.07972431182861328,0.15604740381240845,0.1886712908744812,0.9504094951057575,-0.3041275444276053,0.06138669091481126,0.021442276396926706
1709730691424303900,11.885303955078125,0.4701656997203827,-0.2146041989326477,0.3281530737876892,0.13025492429733276,0.5707830786705017,-0.8107036352157593,-0.06105633080005646,0.11395508050918579,0.23401296138763428,0.9512140127539084,-0.30152586164786827,0.061076586370984065,0.023316605267361783
1709730691434323700,11.89532373046875,0.48639100790023804,-0.22471223771572113,0.25667569041252136,0.13003741204738617,0.5666180849075317,-0.8136548399925232,-0.04944050312042236,0.07364064455032349,0.2893018126487732,0.951949320058096,-0.2991910856090763,0.06047543115260298,0.024897663712814107
1709730691444342800,11.9053427734375,0.4820934534072876,-0.22738902270793915,0.188689187169075,0.12950418889522552,0.5623010396957397,-0.816728949546814,-0.02795696258544922,0.08924925327301025,0.29745709896087646,0.9527224763763221,-0.29674451568803406,0.05981820889986261,0.026156996131336638
1709730691454361900,11.91536181640625,0.4683997333049774,-0.25500786304473877,0.08142399787902832,0.12828457355499268,0.5582789778709412,-0.8196753263473511,-0.028751492500305176,0.09179121255874634,0.2751501798629761,0.9534715398614518,-0.2944306726586911,0.05893147126795426,0.027010788900393504
1709730691464380700,11.925380615234374,0.5676683187484741,-0.2662732005119324,0.02666061744093895,0.1263742744922638,0.5539810657501221,-0.822881817817688,-0.041153937578201294,0.08940571546554565,0.2507840394973755,0.9542984655348948,-0.29192050283003024,0.057805719763973896,0.027484294017036098
1709730691474399700,11.935399658203124,0.5956368446350098,-0.2789575755596161,-0.05681616812944412,0.12406526505947113,0.5491343140602112,-0.8264740109443665,-0.050639986991882324,0.08405959606170654,0.18262940645217896,0.9552338274976314,-0.28907276685459943,0.05656792691620352,0.027664439843763725
1709730691484418800,11.945418701171874,0.6264567971229553,-0.28382912278175354,-0.1400948166847229,0.12116481363773346,0.5442073345184326,-0.830155074596405,-0.08429957926273346,0.10754126310348511,0.12498533725738525,0.9562041357329214,-0.28614729814503587,0.055156137142354754,0.027405042303579194
1709730691494438000,11.95543798828125,0.6500158905982971,-0.2798873782157898,-0.19030658900737762,0.11790534853935242,0.5390763282775879,-0.8339634537696838,-0.11579964309930801,0.11598348617553711,0.08138471841812134,0.9572154665488227,-0.2830899111686153,0.05365044812788025,0.026838235905385432
1709730691504458000,11.9654580078125,0.7152588367462158,-0.27305957674980164,-0.2349555492401123,0.11443651467561722,0.5336476564407349,-0.8379286527633667,-0.1440538465976715,0.06983739137649536,0.0256880521774292,0.9582725824128522,-0.27985829412230884,0.05210574178173035,0.026037303845918448
1709730691514476800,11.975476806640625,0.8003082275390625,-0.24675074219703674,-0.3066137731075287,0.11080420017242432,0.5275789499282837,-0.8422486782073975,-0.19463598728179932,0.030404388904571533,-0.014455974102020264,0.9594288092076709,-0.27625735334543866,0.05057199832859578,0.024911082412202214
1709730691524496000,11.985495849609375,0.9451346397399902,-0.19978828728199005,-0.4049326181411743,0.10702146589756012,0.5206183791160583,-0.8470554351806641,-0.2204248011112213,-0.00688546895980835,-0.06218528747558594,0.960720901607405,-0.272142938606844,0.049096849681404126,0.023305259997080007
1709730691534515000,11.995514892578125,1.0726337432861328,-0.15799076855182648,-0.5611355304718018,0.10299112647771835,0.5125466585159302,-0.8524604439735413,-0.24035075306892395,-0.05919283628463745,-0.10959100723266602,0.9621792510848961,-0.26738782745388934,0.04768167720016176,0.021007848514697582
1709730691544533800,12.00553369140625,1.2713351249694824,-0.06040323153138161,-0.7689028382301331,0.09868264198303223,0.5031952857971191,-0.8585197925567627,-0.2775461673736572,-0.13422256708145142,-0.1789863109588623,0.9638192274965378,-0.26189309655705123,0.04639087012565443,0.01767480494117434
1709730691554552800,12.015552734375,1.4308643341064453,0.030107226222753525,-1.014572262763977,0.09416984021663666,0.49230048060417175,-0.8653162717819214,-0.32894158363342285,-0.20659494400024414,-0.2751256227493286,0.9656535191189256,-0.255519254551113,0.04529654052158753,0.013087687945525749
1709730691564572000,12.025572021484376,1.6026432514190674,0.13942253589630127,-1.3576300144195557,0.08907094597816467,0.4802896976470947,-0.872575581073761,-0.4231773912906647,-0.24910381436347961,-0.374433696269989,0.9675949369334095,-0.24850378927388422,0.044250046615582406,0.006918818270455723
1709730691574591000,12.035591064453126,1.996880292892456,0.3316282033920288,-1.6325854063034058,0.08402768522500992,0.4657566547393799,-0.8809143304824829,-0.5251592993736267,-0.23232775926589966,-0.5378173589706421,0.9697711944668315,-0.24008979711305647,0.04358568549017307,-0.0010591819860087393
1709730691584610800,12.04561083984375,2.3258936405181885,0.4866071939468384,-1.9154876470565796,0.07951872050762177,0.44810211658477783,-0.8904387950897217,-0.640462338924408,-0.2581759989261627,-0.7390930652618408,0.9721660006183148,-0.22999184240672083,0.043409097419188414,-0.010615547359738403
1709730691594630000,12.0556298828125,2.8938791751861572,0.7470661997795105,-2.16780686378479,0.07601574808359146,0.42631468176841736,-0.9013752937316895,-0.7654536366462708,-0.30354246497154236,-0.917335033416748,0.9747866423223759,-0.21768607039597845,0.043876356017503705,-0.021876516247217842
1709730691604648700,12.065648681640624,3.236997365951538,0.9081333875656128,-2.3738436698913574,0.0741368904709816,0.4000835716724396,-0.9134751558303833,-0.8850499987602234,-0.32345396280288696,-1.1131056547164917,0.9775204553782981,-0.20304995088834524,0.04509035513994513,-0.034515147664989254
1709730691614667800,12.075667724609374,3.685041666030884,1.1207726001739502,-2.6122093200683594,0.0738602727651596,0.3700545132160187,-0.9260693192481995,-1.0060960054397583,-0.28443747758865356,-1.2659626007080078,0.980141390059564,-0.1864519798834856,0.04691496470302177,-0.0485549364381712
1709730691624686600,12.0856865234375,3.996126651763916,1.258256435394287,-2.8198723793029785,0.07544814795255661,0.3361942172050476,-0.9387657046318054,-1.0493861436843872,-0.18647503852844238,-1.3857886791229248,0.9824999891016611,-0.1678869779674601,0.049306354537725396,-0.06384901205855115
1709730691634705700,12.09570556640625,4.433846950531006,1.3898237943649292,-3.0819597244262695,0.07855605334043503,0.29859262704849243,-0.9511421322822571,-1.1031532287597656,-0.13068491220474243,-1.4671623706817627,0.9844210454206239,-0.14740812931342887,0.05195929480735227,-0.08053692478729509
1709730691644724700,12.105724853515625,4.860807418823242,1.4947978258132935,-3.240229368209839,0.08356461673974991,0.2565435767173767,-0.962913453578949,-1.1567457914352417,-0.03901427984237671,-1.5639724731445312,0.9857873188981571,-0.12464927622418952,0.05482539465226948,-0.09838701914395738
1709730691654744800,12.115744873046875,5.190952301025391,1.6149157285690308,-3.350001096725464,0.09093498438596725,0.21055668592453003,-0.9733430743217468,-1.1611101627349854,0.028929993510246277,-1.6565701961517334,0.9864042611026018,-0.09986040382317171,0.05793419242839337,-0.11695368729210784
1709730691664764000,12.125763916015625,5.393058776855469,1.6875656843185425,-3.535292148590088,0.100670725107193,0.1619572937488556,-0.9816492199897766,-1.172921061515808,0.10072274506092072,-1.6612950563430786,0.9860330296255037,-0.07366546814082106,0.06122725566943002,-0.13624749591436672
1709730691674782700,12.13578271484375,5.6913862228393555,1.7667242288589478,-3.650817632675171,0.1128072664141655,0.1111704409122467,-0.9873781800270081,-1.217482566833496,0.2614338994026184,-1.6932706832885742,0.9845075076615615,-0.04619893929226158,0.06462640414355549,-0.15631408835180352
1709730691684801800,12.1458017578125,5.870998859405518,1.704080581665039,-3.681413412094116,0.12695027887821198,0.058284636586904526,-0.9901952147483826,-1.2215089797973633,0.4161874055862427,-1.6952142715454102,0.9818009892309052,-0.01749217299828859,0.06779694673729363,-0.17653429578385732
1709730691694820900,12.15582080078125,6.0995612144470215,1.684204339981079,-3.8344573974609375,0.14248649775981903,0.003924884367734194,-0.9897889494895935,-1.248504638671875,0.4723324179649353,-1.5713987350463867,0.9777841852165675,0.012182539920533426,0.07040669728294013,-0.19705990432852405
1709730691704840000,12.16583984375,6.2377448081970215,1.531599998474121,-3.9135966300964355,0.1594938188791275,-0.05143396556377411,-0.985858142375946,-1.2767575979232788,0.6139339804649353,-1.5123870372772217,0.972314524751235,0.04269344985559648,0.07244445924437556,-0.21802190981030758
1709730691714858800,12.175858642578126,6.256968975067139,1.3083676099777222,-3.9333572387695312,0.17643959820270538,-0.10627269744873047,-0.9785577058792114,-1.247026801109314,0.6968488693237305,-1.4715155363082886,0.9654956618835788,0.07316744681791182,0.07326440474046206,-0.23894966899306047
1709730691724877800,12.1858779296875,6.327656269073486,1.0508496761322021,-3.976834535598755,0.19324128329753876,-0.16032597422599792,-0.9679635167121887,-1.2029764652252197,0.6836718916893005,-1.2123191356658936,0.9573437330608813,0.10349948837401524,0.07284293548504635,-0.2597589230776867
1709730691734898000,12.19589794921875,6.332563877105713,0.7258843779563904,-4.069528102874756,0.20917674899101257,-0.2133399099111557,-0.954322338104248,-1.224557638168335,0.8886786699295044,-1.0157551765441895,0.9478258541136401,0.13351076227437808,0.07080747039134438,-0.28069064894359147
1709730691744917000,12.2059169921875,6.297693252563477,0.5361562371253967,-4.1835432052612305,0.22479991614818573,-0.2641577124595642,-0.9379156231880188,-1.2275769710540771,1.115140438079834,-0.9588281512260437,0.9369026629873534,0.1627353723281794,0.06752326376716258,-0.30194560806204873
1709730691754935800,12.215935791015625,6.103229999542236,0.16254112124443054,-4.115407943725586,0.2390485405921936,-0.3128180503845215,-0.9192391633987427,-1.2034956216812134,1.172971248626709,-0.8579672574996948,0.9248517516655129,0.19096146552698512,0.0625630567833425,-0.3229065996832463
1709730691764955000,12.225954833984375,6.034139156341553,0.0020931698381900787,-4.215814590454102,0.2527853548526764,-0.3579336702823639,-0.8988787531852722,-1.294960618019104,1.194252610206604,-0.8515484929084778,0.9117512273901562,0.2176210219931505,0.056583691342606976,-0.3437279547430705
1709730691774974000,12.235973876953125,5.916848659515381,-0.20670583844184875,-4.237766265869141,0.2672930955886841,-0.4004741907119751,-0.8764558434486389,-1.2996875047683716,1.3628307580947876,-0.9304899573326111,0.8974150745684343,0.24345096030217164,0.05003708929095605,-0.3645190643720616
1709730695612307200,16.07330712890625,-4.717820167541504,-2.5545315742492676,-6.57042121887207,0.4847988486289978,-0.30865636467933655,-0.8183527588844299,-0.9649624824523926,0.5993363261222839,0.11042129993438721,0.823132677200478,0.011407007967392288,0.3011536063538539,0.4812783234993299
1709730695622327300,16.083327392578123,-4.760087966918945,-2.2616634368896484,-6.8198394775390625,0.48313087224960327,-0.23667217791080475,-0.8429536819458008,-0.998450756072998,0.626763105392456,0.06063556671142578,0.842427327721234,-0.01245961135437025,0.27994271729030407,0.46020988943363295
1709730695632346400,16.093346435546874,-4.685521125793457,-2.122079849243164,-6.96935510635376,0.4782170355319977,-0.16289415955543518,-0.8630028367042542,-0.9763707518577576,0.6091679334640503,0.052410244941711426,0.8603127895139089,-0.03706732262630888,0.2590841188741557,0.43745087740232197
1709730695642365200,16.103365234375,-4.547936916351318,-1.9543617963790894,-7.023434162139893,0.46931973099708557,-0.08941403031349182,-0.8784896731376648,-0.8822073340415955,0.6400426626205444,0.1277419924736023,0.8766376447111784,-0.061511549131951795,0.23868702753754586,0.4132204196476072
1709730695652384300,16.11338427734375,-4.1063666343688965,-1.8874262571334839,-7.0341973304748535,0.45588910579681396,-0.018085414543747902,-0.8898528218269348,-0.7574943900108337,0.7653235793113708,0.17580252885818481,0.8913636487459085,-0.08502144990341196,0.2187348888655175,0.38781073180494463
1709730695662403300,16.1234033203125,-3.8089210987091064,-1.5756717920303345,-6.959786891937256,0.43928566575050354,0.048335473984479904,-0.8970461487770081,-0.6238559484481812,0.9239850640296936,0.05698877573013306,0.9044461169341643,-0.10669638740838831,0.20023189253613563,0.3612481260108224
1709730695672422400,16.13342236328125,-4.019939422607422,-1.3188045024871826,-6.99879789352417,0.4206427335739136,0.11350926756858826,-0.9000974297523499,-0.48247137665748596,0.9754799604415894,-0.15837424993515015,0.9156648027404275,-0.12865817096093618,0.1827522050785637,0.3340760009016547
1709730695682441200,16.143441162109376,-4.315441131591797,-1.0192795991897583,-7.10507869720459,0.39971333742141724,0.18005529046058655,-0.8987821340560913,-0.4190004765987396,0.9142287373542786,-0.2136293649673462,0.9250753335011389,-0.1521348481708198,0.16572241003459692,0.305984849779546
1709730695692461300,16.15346142578125,-4.580727577209473,-0.910214900970459,-7.121085166931152,0.37594789266586304,0.24779760837554932,-0.89289391040802,-0.3623828589916229,0.7282766103744507,-0.19907081127166748,0.9325416622623944,-0.17712357115151264,0.14893049599198996,0.2771514828760443
1709730695702480400,16.16348046875,-4.455821514129639,-0.8196032643318176,-7.0495123863220215,0.3481960594654083,0.3139837384223938,-0.8832744359970093,-0.2850247025489807,0.5748101472854614,-0.15545237064361572,0.9381741394909033,-0.20225290489684716,0.13212324466474032,0.24792435336844407
1709730697766423800,18.227423828125,-0.1805470734834671,-0.2821192145347595,-0.867011308670044,0.23827791213989258,-0.9033646583557129,-0.35658907890319824,-0.29392674565315247,0.01803457736968994,0.09267309308052063,0.45524548351863225,0.18260204175156564,0.5369934342156035,0.6863279215264386
1709730697776442600,18.237442626953126,-0.23614029586315155,-0.4622231125831604,-1.072418451309204,0.24569071829319,-0.9002901911735535,-0.3593239188194275,-0.3569883406162262,-0.08486300706863403,0.10080945491790771,0.45975849473669833,0.1808154304297736,0.5363243627232405,0.6843128658284982
1709730697786461700,18.247461669921876,-0.2915510833263397,-0.6109873056411743,-1.2836484909057617,0.254352331161499,-0.8963785767555237,-0.3630569279193878,-0.410968542098999,-0.11250197887420654,0.11830592155456543,0.4654639121890568,0.17887046561366923,0.535235360328964,0.6818150822933985
1709730697796481500,18.2574814453125,-0.41390684247016907,-0.7906677722930908,-1.5245593786239624,0.26434561610221863,-0.8914686441421509,-0.367974191904068,-0.47696158289909363,-0.046092331409454346,0.1645439863204956,0.4724218550615064,0.1766880038304733,0.5336611812161949,0.6788259393098707
1709730697806500600,18.26750048828125,-0.566960871219635,-0.9721824526786804,-1.8135610818862915,0.2759210765361786,-0.8851238489151001,-0.3747308552265167,-0.5521814823150635,0.03792542219161987,0.20635011792182922,0.4808648553498466,0.1740516611520685,0.5313573112450861,0.6753771503459955
1709730697816519400,18.27751953125,-0.7584967017173767,-1.1890989542007446,-2.1039838790893555,0.2891274094581604,-0.8770785331726074,-0.3835863769054413,-0.6203346848487854,0.1003146767616272,0.2676347494125366,0.49091152780021974,0.17089161948323764,0.5282072225852371,0.671415678709803
1709730697826538500,18.28753857421875,-1.0493510961532593,-1.4042032957077026,-2.37408447265625,0.3036345839500427,-0.8669245839118958,-0.3952818214893341,-0.6779174208641052,0.11777913570404053,0.325900137424469,0.5025921584821116,0.16709917642268082,0.5238673019273784,0.6671146704440173
1709730697836557600,18.2975576171875,-1.4027166366577148,-1.614983320236206,-2.6258535385131836,0.31912004947662354,-0.8541646003723145,-0.4105668365955353,-0.739301323890686,0.12032371759414673,0.3926377296447754,0.5158929884687419,0.1624770616263582,0.5179940029460244,0.6626747288018784
1709730697846576600,18.30757666015625,-1.7160394191741943,-1.7219007015228271,-2.817924737930298,0.33520156145095825,-0.8386387825012207,-0.4293307363986969,-0.8018916249275208,0.13645988702774048,0.4612215757369995,0.5304601455968149,0.1568720395047655,0.5106131591813391,0.6582381009225559
1709730697856595500,18.317595458984375,-2.0407450199127197,-1.886786937713623,-3.0714633464813232,0.3516944348812103,-0.8202665448188782,-0.45108065009117126,-0.8380683660507202,0.14094531536102295,0.5517581105232239,0.546126789357661,0.1502859894331317,0.5018703054004493,0.6536710313965229
1709730697866614800,18.32761474609375,-2.3714489936828613,-2.002894401550293,-3.400893449783325,0.3688547611236572,-0.7982805967330933,-0.47612422704696655,-0.8824808597564697,0.16012752056121826,0.591801106929779,0.5631457297068855,0.14242626704926092,0.4915817764615382,0.6487904161977515
1709730697876633600,18.337633544921875,-2.507148265838623,-2.129610061645508,-3.7181031703948975,0.3867996335029602,-0.7728154063224792,-0.5031325221061707,-0.89714515209198,0.2762181758880615,0.6355329751968384,0.5813920389020165,0.13343225935444933,0.4802390919202464,0.6430781335031951
1709730697886652700,18.347652587890625,-2.7545342445373535,-2.225407361984253,-4.016324520111084,0.4048474431037903,-0.7438737154006958,-0.5317428112030029,-0.8755353689193726,0.3863755464553833,0.6325576305389404,0.6006483309710203,0.12347609148810174,0.46784852686054595,0.6364691340780444
1709730697896671700,18.357671630859375,-3.0487112998962402,-2.2742574214935303,-4.351901054382324,0.4230356216430664,-0.7106010913848877,-0.56221604347229,-0.8620309829711914,0.42327815294265747,0.6008970737457275,0.6208167685148881,0.1120496065254816,0.45424316458608777,0.6290425405252553
1709730697906690800,18.36769091796875,-3.441967010498047,-2.377678871154785,-4.641233921051025,0.44071894884109497,-0.6724111437797546,-0.5946679711341858,-0.8532251119613647,0.4319937229156494,0.5651116967201233,0.6418072882216272,0.0990496544826732,0.4391527977795771,0.6208198439937525
1709730697916709600,18.377709716796875,-3.908635377883911,-2.3913307189941406,-4.903565883636475,0.4572221636772156,-0.6282874345779419,-0.6294463872909546,-0.8316576480865479,0.44580763578414917,0.5116028189659119,0.6634263676447782,0.08406895616773995,0.42214833562686194,0.6120363924508604
1709730697926728700,18.387728759765626,-4.204074859619141,-2.329009532928467,-5.008138656616211,0.47190409898757935,-0.5788016319274902,-0.6650527119636536,-0.8371385335922241,0.51614910364151,0.46879416704177856,0.6849533314852226,0.06725874460154649,0.40367053735366626,0.6027978108359023
1709730697936748800,18.397748779296876,-4.321388244628906,-2.20485520362854,-5.157095432281494,0.48444417119026184,-0.5252923965454102,-0.6995582580566406,-0.8976369500160217,0.5723505020141602,0.3837318420410156,0.705885142444193,0.049177119277625796,0.38445087838345887,0.5928788314302706
1709730697946768000,18.407767822265626,-4.364582538604736,-2.0408074855804443,-5.386625289916992,0.495439738035202,-0.4682367742061615,-0.7316377758979797,-0.9653799533843994,0.6047419309616089,0.27750563621520996,0.7262438228249729,0.029943236175229048,0.3650815368356782,0.581711946880674
1709730697956787000,18.417786865234376,-4.279695510864258,-1.8701311349868774,-5.619851589202881,0.5050153136253357,-0.4082557260990143,-0.7604516744613647,-0.970789909362793,0.6711951494216919,0.21437013149261475,0.7460255336171049,0.009801491713267812,0.3459451971687959,0.5689216085881427
1709730697966805800,18.4278056640625,-4.218711853027344,-1.7230160236358643,-5.814579486846924,0.5127233862876892,-0.346249520778656,-0.7856373190879822,-0.9111914038658142,0.6968507170677185,0.13272899389266968,0.7651384686276146,-0.01082827308906847,0.3272064811978098,0.5544202145760854
1709730697976824800,18.437824951171876,-4.318277359008789,-1.5586093664169312,-5.9929327964782715,0.5181816816329956,-0.2816842496395111,-0.8075528740882874,-0.8112421035766602,0.638388991355896,0.06058943271636963,0.7834642557897858,-0.0322760213242556,0.30851550295796476,0.5384793756944974
1709730697986844000,18.447843994140626,-4.3926496505737305,-1.3706797361373901,-6.102219581604004,0.5212517976760864,-0.21446968615055084,-0.8260141015052795,-0.6922570466995239,0.5705945491790771,0.07369476556777954,0.8007823379366532,-0.05475613149423349,0.28981842905198774,0.5213008329756024
1709730697996862700,18.45786279296875,-4.489294052124023,-1.200049638748169,-6.169798851013184,0.521600604057312,-0.14529384672641754,-0.8407273292541504,-0.5926608443260193,0.5073086023330688,0.08711099624633789,0.8168551655486019,-0.07808547417018055,0.2711807494592549,0.5031015210158519
1709730698006882600,18.467882568359375,-4.474180221557617,-1.00433349609375,-6.245260238647461,0.5190808176994324,-0.07482709735631943,-0.8514435291290283,-0.5448986887931824,0.47271525859832764,0.05922245979309082,0.8316302788245034,-0.10204461626104395,0.25271554007785607,0.4838520827611545
1709730698016901600,18.477901611328125,-4.292454242706299,-0.7697610855102539,-6.323749542236328,0.5139780044555664,-0.004649583715945482,-0.8577907681465149,-0.5618754029273987,0.5134081244468689,0.03836327791213989,0.8451191948251545,-0.12606841679797076,0.2349710303632771,0.4633236300934377
1709730698026920700,18.487920654296875,-4.027156352996826,-0.530219316482544,-6.376551151275635,0.5064767003059387,0.06360762566328049,-0.8599042892456055,-0.6164315342903137,0.6063295006752014,-0.011082649230957031,0.8573923087476539,-0.14952035365101868,0.2183838494703816,0.4413961338332889
1709730698036939800,18.497939697265625,-3.80509090423584,-0.2669963240623474,-6.508692264556885,0.49683305621147156,0.12973126769065857,-0.8580948114395142,-0.6423256397247314,0.713042140007019,-0.01228177547454834,0.8685020673746381,-0.172415570848322,0.20304055002830249,0.4180329700629016
1709730698046958600,18.50795849609375,-3.5105743408203125,-0.008490178734064102,-6.624517440795898,0.4849833548069,0.19341585040092468,-0.8528665900230408,-0.5921610593795776,0.7947738170623779,0.02045387029647827,0.8786457208884606,-0.1945749791254406,0.1889636684271818,0.39295675357638327
1709730698056977700,18.517977783203126,-3.4833762645721436,0.1685674786567688,-6.6755170822143555,0.47080010175704956,0.2550168037414551,-0.8445789813995361,-0.43886348605155945,0.8085055351257324,0.05078625679016113,0.8876123616687651,-0.21629646257846233,0.1758589129395764,0.36665191509753886
1709730698066996700,18.527996826171876,-3.215224266052246,0.21987807750701904,-6.59190034866333,0.4535239040851593,0.31400132179260254,-0.8340978622436523,-0.2546561062335968,0.75058913230896,0.10115718841552734,0.8954054892225812,-0.23725836193649757,0.16327746244776195,0.3395556265234411
1709730698077016800,18.538016845703126,-3.353154420852661,0.11557440459728241,-6.34010124206543,0.43283331394195557,0.3698004186153412,-0.8221331834793091,-0.13490548729896545,0.6278496980667114,0.11897766590118408,0.9017864569099242,-0.25732147710155595,0.15072846323740433,0.3128062659105737
1709730698087035600,18.54803564453125,-3.4382805824279785,0.05359172821044922,-6.195972919464111,0.4085308015346527,0.42405784130096436,-0.8082558512687683,-0.06984677910804749,0.5390310883522034,0.1726357340812683,0.9065763338734203,-0.27739574068183415,0.13756337733498183,0.28678774444497335
1709730698097054700,18.5580546875,-3.32635498046875,0.0805010050535202,-6.061415672302246,0.3813613951206207,0.4755580425262451,-0.7927219271659851,-0.059538304805755615,0.6206638216972351,0.2461368441581726,0.9100712188507076,-0.29694207132614464,0.1243561605269387,0.26101969711477724
1709730698107073800,18.56807373046875,-3.028242588043213,0.17986300587654114,-5.829931259155273,0.3525751829147339,0.5225651860237122,-0.7762836217880249,-0.10628309845924377,0.7799249887466431,0.1776813268661499,0.9125080455716064,-0.3151998526662332,0.11183573837403232,0.23552225331081247
1709730698117092900,18.5780927734375,-2.778524398803711,0.2808404266834259,-5.564399719238281,0.3234279751777649,0.5639278888702393,-0.7598550319671631,-0.15654262900352478,0.951544463634491,0.11511021852493286,0.914089015148351,-0.3316220883098559,0.1004951807709217,0.2106386844029821
1709730698127111700,18.588111572265625,-2.648918628692627,0.36472389101982117,-5.473080158233643,0.29357093572616577,0.6015257239341736,-0.7429554462432861,-0.20169776678085327,1.0470185279846191,0.14485669136047363,0.9147833245646307,-0.347060999792648,0.08983840470053825,0.18614247245281337
1709730698137130800,18.598130859375,-2.4909019470214844,0.5372380614280701,-5.312259674072266,0.2633880078792572,0.6354280710220337,-0.7258497476577759,-0.1608794927597046,1.1089870929718018,0.13312214612960815,0.9147597354444257,-0.36147284371715593,0.0800781348224307,0.16167672215245704
1709730698147150800,18.60815087890625,-2.4570064544677734,0.617262065410614,-5.11693000793457,0.23362910747528076,0.6661486625671387,-0.708281934261322,0.014371976256370544,1.0850567817687988,0.06925910711288452,0.913889619874989,-0.37519844219463977,0.07131031081207824,0.1376466337732982
1709730698157170000,18.618169921875,-2.5402934551239014,0.5828995704650879,-4.977278709411621,0.20346848666667938,0.6947196125984192,-0.6899023056030273,0.15433484315872192,0.9281288385391235,0.14295101165771484,0.9120846190805014,-0.3887142485082064,0.06284954764522226,0.1142488028067312
1709730698167188700,18.628188720703125,-2.3915772438049316,0.4845152199268341,-4.794486045837402,0.1723167598247528,0.7208703756332397,-0.671306848526001,0.2161109745502472,0.7719274759292603,0.23559212684631348,0.909539469807465,-0.401748507860411,0.05426511788011462,0.09160484680665824
1709730698177207800,18.638207763671875,-2.3677334785461426,0.5121010541915894,-4.503934860229492,0.1415286809206009,0.743861198425293,-0.6531769633293152,0.2697872221469879,0.7466325759887695,0.21808785200119019,0.9064667307340597,-0.41386920265687405,0.04608465639281833,0.07004661206633903
1709730698187227000,18.648226806640626,-2.232790946960449,0.6268265843391418,-4.287665367126465,0.11189278215169907,0.7644173502922058,-0.6349378228187561,0.29382312297821045,0.8653433322906494,0.1433759331703186,0.9027872315879337,-0.4254828355586265,0.03867092838588757,0.049437415446286534
1709730698197246000,18.658245849609376,-2.139934539794922,0.754436731338501,-4.017414093017578,0.08411850035190582,0.7820721864700317,-0.6174845695495605,0.24100050330162048,1.0140093564987183,0.07109785079956055,0.8988149929402677,-0.43612463435587556,0.03245031448839658,0.029561326084510637
1709730698207264800,18.6682646484375,-2.2906737327575684,0.7747933864593506,-3.7533910274505615,0.05800064280629158,0.7983022928237915,-0.5994575023651123,0.21398726105690002,0.9960702061653137,-0.052047014236450195,0.8942111348283012,-0.4466971803438952,0.027071623545657536,0.01072890871140439
1709730698217284600,18.67828466796875,-2.383617639541626,0.7841289639472961,-3.5251545906066895,0.03318324312567711,0.8138488531112671,-0.5801284313201904,0.2447555959224701,0.8682800531387329,-0.10007786750793457,0.888828259617646,-0.45764667849640656,0.022255596344178813,-0.006969964950148971
1709730698227303700,18.6883037109375,-2.411229133605957,0.861171305179596,-3.3500022888183594,0.009643208235502243,0.8282892107963562,-0.5602177977561951,0.29087865352630615,0.712604284286499,-0.11888986825942993,0.882914721359369,-0.4685745726971295,0.018137315160659667,-0.023885415713969342
1709730698237322800,18.69832275390625,-2.27787709236145,0.8514565229415894,-3.2410335540771484,-0.013169691897928715,0.841292142868042,-0.5404202938079834,0.29086437821388245,0.5608226656913757,-0.15608245134353638,0.8766934277890867,-0.479145327740514,0.014478358246126907,-0.040233987796307887
1709730698247341800,18.708341796875,-2.001411199569702,0.8687622547149658,-3.117295742034912,-0.03553905710577965,0.8518624305725098,-0.5225585699081421,0.29640331864356995,0.44759124517440796,-0.1341339349746704,0.8707054207852356,-0.4884647864094087,0.011084885407920285,-0.056137512919459946
1709730698257360600,18.718360595703125,-1.635332465171814,0.8013893365859985,-2.9327046871185303,-0.05726245790719986,0.8599192500114441,-0.507207989692688,0.33990100026130676,0.41037487983703613,-0.12211030721664429,0.8651732083388921,-0.49632177216914664,0.007791909777183088,-0.07126944998367712
1709730698267379700,18.728379638671875,-1.3286446332931519,0.8572723269462585,-2.6987247467041016,-0.07739536464214325,0.8653507828712463,-0.49515438079833984,0.33485692739486694,0.4815577268600464,-0.11086368560791016,0.8603904926077722,-0.5023927680112001,0.004930822842276367,-0.08547120848189872
1709730698277398800,18.738398681640625,-1.3341403007507324,0.9083784818649292,-2.5525145530700684,-0.09588221460580826,0.8695265650749207,-0.4844895005226135,0.28094080090522766,0.6229050159454346,-0.09563440084457397,0.855835484321745,-0.50768894727787,0.0026789949183306143,-0.09894618903911061
1709730698287417600,18.74841748046875,-1.3631333112716675,0.9408323168754578,-2.3799028396606445,-0.11302115023136139,0.8734524250030518,-0.4736107289791107,0.2390587329864502,0.7890841364860535,-0.09371107816696167,0.8510523354386672,-0.513023934166551,0.0010368262448131964,-0.11187191213619094
1709730698297437700,18.758437744140625,-1.3988276720046997,0.8654268980026245,-2.172797679901123,-0.12870700657367706,0.8771899342536926,-0.46257147192955017,0.23733434081077576,0.8283611536026001,-0.12727230787277222,0.8461314668099964,-0.5183765479129057,-0.00015929276272868504,-0.12388431568879243
1709730698307456800,18.768456787109375,-1.3222650289535522,0.7969160079956055,-1.9475281238555908,-0.14309728145599365,0.8806315660476685,-0.45167604088783264,0.23606908321380615,0.734770655632019,-0.21198976039886475,0.8412306863891322,-0.5236035160870249,-0.0011541329998984546,-0.13479234394156608
1709730698317475800,18.778475830078126,-1.265583872795105,0.7217363119125366,-1.702210545539856,-0.1558120846748352,0.8836626410484314,-0.4414328336715698,0.2516220211982727,0.6803174018859863,-0.30031222105026245,0.8365684682527004,-0.5284695880807461,-0.001866637767228228,-0.14446331711572957
1709730698327495000,18.788494873046876,-1.2453252077102661,0.6186876893043518,-1.493424892425537,-0.16704899072647095,0.8866214752197266,-0.43127384781837463,0.28583866357803345,0.6257076263427734,-0.33653318881988525,0.8320136446345365,-0.5332517898938434,-0.0023671680054713723,-0.15293897159742464
1709730698337513700,18.798513671875,-0.9665489792823792,0.4860458970069885,-1.2705971002578735,-0.1769864708185196,0.8890566825866699,-0.42220136523246765,0.3216702938079834,0.5634426474571228,-0.31286031007766724,0.8279109825986297,-0.5374858127962686,-0.002884374009359157,-0.16020000613544558
1709730698347532800,18.80853271484375,-0.5328068137168884,0.43146175146102905,-1.0100054740905762,-0.18527747690677643,0.8900892734527588,-0.416429340839386,0.3268333077430725,0.5368211269378662,-0.2906782627105713,0.824983954106653,-0.5401603426775852,-0.003484085120114297,-0.16618107752328987
1709730698357552600,18.818552734375,-0.3339398205280304,0.32565897703170776,-0.8225386142730713,-0.19177688658237457,0.8901493549346924,-0.4133470952510834,0.29843583703041077,0.6078211665153503,-0.2554304003715515,0.8230707151011114,-0.5415813809421,-0.004007350779510595,-0.1709625093389915
1709730698367571700,18.82857177734375,-0.17480769753456116,0.2332715392112732,-0.6926229596138,-0.19740694761276245,0.8897061347961426,-0.41164714097976685,0.23117466270923615,0.7166932821273804,-0.16656944155693054,0.8217369504854453,-0.5423598597499756,-0.0047129866568833625,-0.17484818321137
1709730698377590800,18.8385908203125,-0.07248879224061966,0.16975349187850952,-0.5803475975990295,-0.20224304497241974,0.8889415264129639,-0.4109511077404022,0.18318481743335724,0.6938679218292236,-0.13790756464004517,0.8208484382683077,-0.5426730499429033,-0.0055144545565817,-0.1779984974672728
1709730698387609600,18.848609619140625,-0.016809815540909767,0.14407023787498474,-0.4964257776737213,-0.2063884735107422,0.8880090117454529,-0.41090601682662964,0.16084100306034088,0.5708227157592773,-0.15225011110305786,0.8202582084534883,-0.5426852950482914,-0.006297447702927943,-0.18063637900840007
1709730698397628700,18.858628662109375,0.009728582575917244,0.1252060979604721,-0.4096354842185974,-0.20987695455551147,0.8870800733566284,-0.4111453592777252,0.15627282857894897,0.5045366883277893,-0.14848601818084717,0.8198349069763815,-0.5425667733916073,-0.006972721795629961,-0.18287518430845323
1709730698407647700,18.868647705078125,0.0855647623538971,0.1371770054101944,-0.29984959959983826,-0.21251313388347626,0.8861292004585266,-0.4118410050868988,0.16531772911548615,0.47207075357437134,-0.1320737898349762,0.8196422000673885,-0.5422396414354769,-0.0074608810759143294,-0.1846809149048691
1709730698417666600,18.87866650390625,0.13717815279960632,0.13176493346691132,-0.19809021055698395,-0.21412502229213715,0.8851489424705505,-0.4131123125553131,0.18054044246673584,0.3931407928466797,-0.10652574896812439,0.8197200253737996,-0.5416502646149638,-0.007670488026666482,-0.18605152919280415
1709730698427686700,18.888686767578125,0.2337731271982193,0.1056600958108902,-0.11039283871650696,-0.21503332257270813,0.8840612769126892,-0.4149653911590576,0.19222143292427063,0.301882266998291,-0.06464886665344238,0.8200652139276042,-0.5407927491756375,-0.007778250594663548,-0.1870180171359146
1709730698437705700,18.898705810546875,0.3438253402709961,0.07141264528036118,0.014858550392091274,-0.2150733768939972,0.8827351927757263,-0.41775813698768616,0.18576128780841827,0.25306791067123413,-0.031140178442001343,0.8208204266122558,-0.5394996464600481,-0.007814497999387531,-0.18743736566628555
1709730698447724800,18.908724853515626,0.355148047208786,0.038731127977371216,0.07096203416585922,-0.21444439888000488,0.8813531398773193,-0.420987069606781,0.18276719748973846,0.2294866442680359,0.012814491987228394,0.8218179308390026,-0.5380014199479507,-0.007806109317879624,-0.1873731156423126
1709730698457743600,18.91874365234375,0.3267262578010559,0.026512544602155685,0.08798309415578842,-0.21360072493553162,0.8800755143165588,-0.42407742142677307,0.1866537183523178,0.2081812024116516,0.04292812943458557,0.8228145911261632,-0.5365639238976119,-0.0077749295715819206,-0.18712223091001648
1709730698467762700,18.9287626953125,0.2795259654521942,0.027098707854747772,0.11056350916624069,-0.21262921392917633,0.8789823055267334,-0.426824152469635,0.18594159185886383,0.14859026670455933,0.05292278528213501,0.8237277255653539,-0.5352837874344072,-0.007693526281592868,-0.18677426225129096
1709730698477781800,18.93878173828125,0.28694021701812744,0.045164261013269424,0.1415962427854538,-0.21138755977153778,0.8780532479286194,-0.42934566736221313,0.17322534322738647,0.06959378719329834,0.05426940321922302,0.8245889484524143,-0.5341079445174446,-0.007474657827419054,-0.18634858630603204
1709730698487800800,18.94880078125,0.2873244881629944,0.06790685653686523,0.16798844933509827,-0.20978063344955444,0.877139151096344,-0.43199431896209717,0.15942664444446564,0.017422616481781006,0.05452233552932739,0.8255046085702268,-0.5328719356063446,-0.007095465063775701,-0.1858476125986779
1709730698497819600,18.958819580078124,0.2824796736240387,0.10818114876747131,0.19522298872470856,-0.20780789852142334,0.8762680888175964,-0.4347069561481476,0.13828884065151215,0.014814615249633789,0.0641472339630127,0.8264423168519504,-0.5316052155780665,-0.006512699433043848,-0.18532846043187268
1709730698507839700,18.96883984375,0.24480819702148438,0.1451554000377655,0.19532792270183563,-0.20552216470241547,0.8755161762237549,-0.4373009204864502,0.10556188225746155,0.03830212354660034,0.06852647662162781,0.827335658988023,-0.5303932134642784,-0.005708394095651874,-0.18484083729379955
1709730698517858800,18.97885888671875,0.24542100727558136,0.18412688374519348,0.1912764608860016,-0.2031455636024475,0.8748454451560974,-0.4397468566894531,0.0888114720582962,0.020494520664215088,0.059024810791015625,0.828153894986928,-0.5292485198292353,-0.004751153580020143,-0.18448440498806717
1709730698527878000,18.9888779296875,0.19730141758918762,0.1731290966272354,0.2221323698759079,-0.20051071047782898,0.8742736577987671,-0.44208696484565735,0.07575489580631256,-0.01982736587524414,0.043359577655792236,0.8289469122422275,-0.5281507310293081,-0.003650848085418443,-0.18409327094628244
1709730698537897000,18.99889697265625,0.17238114774227142,0.17821626365184784,0.22423413395881653,-0.1978018432855606,0.873916506767273,-0.4440092146396637,0.074083611369133,-0.02734375,0.041085630655288696,0.8296304717941422,-0.5272466923024552,-0.0025141332296639337,-0.18362395347916274
1709730698547915800,19.008915771484375,0.16551871597766876,0.18371649086475372,0.23452086746692657,-0.1949945092201233,0.8736052513122559,-0.4458597004413605,0.07504518330097198,0.01384580135345459,0.037183552980422974,0.8302946964188925,-0.5263728687702296,-0.00132130600987475,-0.18314048401214394
1709730698557934800,19.018934814453125,0.11167865246534348,0.1775657683610916,0.21282675862312317,-0.19223035871982574,0.8734451532363892,-0.44737136363983154,0.06002819538116455,0.034941017627716064,0.03396493196487427,0.830850598188135,-0.5256560765959497,-0.00010442203569930671,-0.18268297840246092
1709730698567954700,19.02895458984375,0.16361722350120544,0.20767413079738617,0.2228812575340271,-0.18949778378009796,0.8732264041900635,-0.44896116852760315,0.031203150749206543,0.019077003002166748,0.02769652009010315,0.8314136790107359,-0.5248982164756634,0.0011280525118634308,-0.1822958616716957
1709730698577973800,19.038973876953126,0.13317355513572693,0.2145649641752243,0.19905342161655426,-0.1866689920425415,0.8729683756828308,-0.4506448805332184,0.0038839876651763916,-0.02012425661087036,0.0057291388511657715,0.8319937277436428,-0.5240912250295293,0.0024377386672738565,-0.18195816350034563
1709730698587992600,19.04899267578125,0.17956103384494781,0.22852204740047455,0.1840773969888687,-0.1840306520462036,0.8726194500923157,-0.45240235328674316,-0.027624011039733887,-0.02711474895477295,-0.0038507580757141113,0.8325646682049643,-0.5232447359840029,0.003711716366781852,-0.18176115548301558
1709730698598011600,19.05901171875,0.17316730320453644,0.2147308588027954,0.1720351129770279,-0.18144340813159943,0.8721240758895874,-0.45439833402633667,-0.05230596661567688,-0.007027089595794678,-0.020790904760360718,0.833198262889095,-0.5222799205858771,0.004952056586313046,-0.18160328882519242
1709730698608030700,19.06903076171875,0.16772247850894928,0.18739672005176544,0.14490602910518646,-0.1791720986366272,0.8716409802436829,-0.4562227725982666,-0.06429712474346161,-0.005735337734222412,-0.028198033571243286,0.8337709171325602,-0.5213943589548043,0.006044764722268611,-0.18148642098202813
1709730698618049800,19.0790498046875,0.15708474814891815,0.14696790277957916,0.1447736620903015,-0.17713165283203125,0.8711536526679993,-0.4579470753669739,-0.06777189671993256,0.008668065071105957,-0.016189247369766235,0.8343243923105942,-0.5205552753858965,0.006975901837355057,-0.1813178987616089
1709730698628068600,19.089068603515624,0.1449974626302719,0.10433655232191086,0.1306791603565216,-0.17535947263240814,0.8707066178321838,-0.4594769775867462,-0.06536318361759186,0.03134721517562866,-0.002757549285888672,0.83483638839608,-0.5198095382676003,0.007717383680965674,-0.18107110277023836
1709730698638087700,19.099087646484374,0.1701081395149231,0.09471163153648376,0.1179250180721283,-0.1738390475511551,0.8702031970024109,-0.46100568771362305,-0.06961491703987122,0.046346426010131836,0.006064891815185547,0.835348068505533,-0.5190646978469672,0.008306042581179555,-0.18082131931583464
1709730698648107800,19.109107666015625,0.2076970636844635,0.08302859961986542,0.1048068180680275,-0.17245081067085266,0.8695339560508728,-0.46278658509254456,-0.07754915952682495,0.027057170867919922,-0.000836491584777832,0.8359304346866663,-0.5181980780428915,0.008801204196770456,-0.18059233834070137
1709730698658126800,19.119126953125,0.2847526967525482,0.10862040519714355,0.07214687764644623,-0.17124450206756592,0.8685431480407715,-0.4650891125202179,-0.0896197259426117,-0.014661431312561035,-0.015333861112594604,0.8366441236822786,-0.5170791052592957,0.009200132314684552,-0.18047430235851541
1709730698668145700,19.129145751953125,0.3643535077571869,0.12391174584627151,0.027360759675502777,-0.17025898396968842,0.8671252131462097,-0.46808725595474243,-0.10894632339477539,-0.03185915946960449,-0.05113881826400757,0.8375176996392931,-0.5156215667601246,0.0095274226582772,-0.18057599323792622
1709730698678164700,19.139164794921875,0.496940016746521,0.18870118260383606,-0.010838556103408337,-0.1695014089345932,0.8651059865951538,-0.4720814824104309,-0.1509331613779068,-0.02655923366546631,-0.10630291700363159,0.8386243066694666,-0.5136763945864551,0.009788781941332435,-0.18096960193711856
1709730698688183800,19.149183837890625,0.5989777445793152,0.25323039293289185,-0.05479882284998894,-0.16872887313365936,0.8624798059463501,-0.47713640332221985,-0.19845858216285706,-0.027335822582244873,-0.18775007128715515,0.8399747762057922,-0.5112035121857988,0.010137376645623563,-0.18168806790187783
1709730698698203000,19.159202880859375,0.7103886604309082,0.3877348303794861,-0.10534029453992844,-0.16790540516376495,0.8591538071632385,-0.48338642716407776,-0.23614729940891266,-0.0200730562210083,-0.28332194685935974,0.8415757586673356,-0.5081270944747907,0.010659981835336075,-0.18287527363229827
1709730698708221700,19.1692216796875,0.856611430644989,0.5626024603843689,-0.18005980551242828,-0.16678102314472198,0.8551616072654724,-0.49079787731170654,-0.2749303877353668,0.017641007900238037,-0.38444629311561584,0.8433769513167362,-0.5044467976385112,0.011597229379131886,-0.18470004896665904
1709730698718241800,19.17924169921875,1.0350538492202759,0.8024155497550964,-0.23523332178592682,-0.16522954404354095,0.8500525951385498,-0.5001096725463867,-0.32912465929985046,0.07112038135528564,-0.5286684036254883,0.8455395673165547,-0.49977460610211993,0.013058313143447506,-0.18739666661175353
1709730698728260900,19.1892607421875,1.261265754699707,1.0600998401641846,-0.274617999792099,-0.1627204269170761,0.8438668847084045,-0.5112833380699158,-0.4046776294708252,0.07394915819168091,-0.6985555291175842,0.8480651079716582,-0.49409055842757105,0.015259914544017856,-0.19085896927669418
1709730698738280000,19.199280029296876,1.58512282371521,1.314056634902954,-0.3655199408531189,-0.1592475026845932,0.8360742926597595,-0.5249952673912048,-0.4427574872970581,0.0330815315246582,-0.8814378380775452,0.8511103130858765,-0.4870040796843824,0.018149002784437894,-0.1952151165375417
1709730698748298800,19.209298828125,1.5472537279129028,1.527443289756775,-0.26815131306648254,-0.15403230488300323,0.8268543481826782,-0.5409120321273804,-0.47563686966896057,0.003330528736114502,-1.0392422676086426,0.8546187345540772,-0.4786020362297046,0.02200182629281328,-0.20020668498640132
1709730698758317800,19.21931787109375,1.8386131525039673,1.865088939666748,-0.6569230556488037,-0.14879609644412994,0.8170894384384155,-0.5569779872894287,-0.5775375366210938,0.0329776406288147,-1.1422255039215088,0.8578278508250583,-0.46991070055658907,0.026361447367070766,-0.20644695701317792
1709730698768337000,19.2293369140625,2.2395222187042236,2.1371800899505615,-0.5658349394798279,-0.1425144076347351,0.8045948147773743,-0.5764692425727844,-0.6694210171699524,0.15149033069610596,-1.3155596256256104,0.8616189828654552,-0.45910785107250207,0.03139066867824808,-0.21411962042391514
1709730698778355700,19.239355712890625,2.6144022941589355,2.335963487625122,-0.6385706663131714,-0.13401035964488983,0.7894903421401978,-0.5989542007446289,-0.7107924818992615,0.2013847827911377,-1.472212791442871,0.8661070065897851,-0.44625988946853257,0.03708132946828785,-0.22211626496341125
1709730698788375800,19.249375732421875,3.1489334106445312,2.5365772247314453,-0.744253933429718,-0.1245943009853363,0.7709563970565796,-0.6245817542076111,-0.8359312415122986,0.21116024255752563,-1.5070405006408691,0.8711293793556415,-0.4311271018138614,0.04287810102316985,-0.2311372274832463
1709730698798394600,19.25939453125,3.634483814239502,2.603757858276367,-0.6749787330627441,-0.11354892700910568,0.7483609318733215,-0.6535001993179321,-0.9317696690559387,0.2365328073501587,-1.5385164022445679,0.8768834442813054,-0.41338392998159545,0.04861724382837072,-0.24046923641769813
1709730698808413700,19.26941357421875,3.9488189220428467,2.719679355621338,-0.8021316528320312,-0.10091222822666168,0.7220969796180725,-0.6843921542167664,-0.9540499448776245,0.23990857601165771,-1.4918162822723389,0.8830283640635379,-0.3935256360058202,0.05423543970488722,-0.2499139448925927
1709730698818432800,19.279432861328125,4.584128379821777,2.94869065284729,-1.0390546321868896,-0.08757170289754868,0.6912053823471069,-0.7173327207565308,-1.0689834356307983,0.3058190941810608,-1.3122235536575317,0.889189261574284,-0.3711859841716863,0.059620409668665865,-0.2607848460652721
1709730698828451600,19.28945166015625,4.983572006225586,3.1127307415008545,-1.1534723043441772,-0.0727333128452301,0.6551247835159302,-0.7520114779472351,-1.1765342950820923,0.31876736879348755,-1.3214595317840576,0.8953762401336953,-0.34612209155995355,0.06475915772667264,-0.2725930262673794
1709730698838470700,19.299470703125,5.513388633728027,3.394829034805298,-1.453924536705017,-0.05593760684132576,0.6137455701828003,-0.7875196933746338,-1.1631938219070435,0.27938181161880493,-1.3538987636566162,0.9012178017660435,-0.3183708556885689,0.06985802662932265,-0.28559806375902425
1709730698848490800,19.30949072265625,5.974769115447998,3.623751640319824,-1.7916094064712524,-0.03716292977333069,0.5667232275009155,-0.82306969165802,-1.2143629789352417,0.391391396522522,-1.298786997795105,0.9062476186452203,-0.2878419675422037,0.07491438513810092,-0.30041640285463106
1709730698858509800,19.319509765625,6.399439334869385,3.771864175796509,-1.9874428510665894,-0.01636592671275139,0.5140084028244019,-0.8576290011405945,-1.3421698808670044,0.4841299057006836,-1.2943637371063232,0.9103043277457592,-0.25467068376880897,0.07955093327073369,-0.31648135303128166
1709730698868529400,19.329529296875,6.769338607788086,3.897160053253174,-2.1137893199920654,0.007262942381203175,0.4560859799385071,-0.8899060487747192,-1.391479253768921,0.41108620166778564,-1.1294114589691162,0.9132353725912399,-0.2191085465925008,0.08389520662914186,-0.3330979103853173
1709730698878548500,19.339548583984374,6.959488868713379,3.902381420135498,-2.425337076187134,0.03281375393271446,0.3943306505680084,-0.9183825850486755,-1.4139478206634521,0.4294303357601166,-0.9852734208106995,0.914582381754234,-0.182003420937233,0.0876552814735946,-0.3503291195489609
1709730698888567600,19.349567626953124,7.1222028732299805,3.936349868774414,-2.7140533924102783,0.0593690499663353,0.32937902212142944,-0.942329466342926,-1.4997377395629883,0.6129426956176758,-0.8483962416648865,0.9139526045843215,-0.1437213484535245,0.0904403234355427,-0.36858577088459893
1709730698898586400,19.35958642578125,7.014468669891357,3.821726083755493,-2.9460854530334473,0.08789987862110138,0.2640993297100067,-0.9604817032814026,-1.52964186668396,0.7847135066986084,-0.7217844724655151,0.9112189849956985,-0.10539135836617246,0.09301503668283567,-0.3871961593006836
1709730698908605400,19.36960546875,7.029633522033691,3.681711196899414,-3.0922858715057373,0.1170780286192894,0.19916985929012299,-0.9729461073875427,-1.5462009906768799,0.9025909900665283,-0.5675507187843323,0.9064687868811949,-0.0674192788613319,0.09477127554169965,-0.40594008003346366
1709730698918625300,19.379625244140627,6.959677696228027,3.544205665588379,-3.1753010749816895,0.14719054102897644,0.1347702592611313,-0.97988361120224,-1.5657391548156738,0.96406090259552,-0.5074515342712402,0.8999538765695659,-0.029716415595234327,0.09578684940422272,-0.4242933580192504
1709730698928644400,19.389644287109373,6.9196953773498535,3.3471405506134033,-3.4076294898986816,0.17760343849658966,0.07187215983867645,-0.9814741015434265,-1.5869967937469482,1.0920681953430176,-0.447770893573761,0.8915447415269434,0.007331953193747313,0.09596454022970605,-0.4425889436467208
1709730698938663400,19.399663330078123,6.77748441696167,3.1616790294647217,-3.5831775665283203,0.20807328820228577,0.011291158385574818,-0.9780480861663818,-1.6253401041030884,1.2929538488388062,-0.41576600074768066,0.8811913130238356,0.04346366982861209,0.09532510986416426,-0.4610053716899354
1709730698948682200,19.40968212890625,6.508268356323242,2.937021017074585,-3.7167482376098633,0.2384141981601715,-0.045447174459695816,-0.9700995683670044,-1.6225541830062866,1.3928898572921753,-0.41684800386428833,0.869123525483146,0.07804560325703049,0.09412271794223565,-0.4792433110922342
1709730698958701300,19.419701416015624,6.3156232833862305,2.797438383102417,-3.8425495624542236,0.26875367760658264,-0.09774952381849289,-0.9582361578941345,-1.6242376565933228,1.3952195644378662,-0.402527391910553,0.8555082268480153,0.11094379957982038,0.09259268822436294,-0.4972160548520995
1709730698968720400,19.429720458984374,6.070931434631348,2.698706865310669,-3.9980297088623047,0.2996410131454468,-0.14569716155529022,-0.9428613781929016,-1.6211589574813843,1.4043641090393066,-0.3991796374320984,0.8403887182061478,0.14244122477455667,0.09099342566074926,-0.5149539093549981
1709730698978739200,19.4397392578125,5.8612961769104,2.6666247844696045,-4.220937252044678,0.3315693140029907,-0.1885274201631546,-0.9244020581245422,-1.6031910181045532,1.4588979482650757,-0.41132181882858276,0.8236905750070116,0.1724715092560445,0.08973597558311217,-0.5326676091552879
1709730698988758300,19.44975830078125,5.6337738037109375,2.641472339630127,-4.44744348526001,0.3648460805416107,-0.22601479291915894,-0.9032190442085266,-1.607064127922058,1.5077073574066162,-0.4077550768852234,0.8053764099241142,0.2011596806869208,0.08902395197635299,-0.5504346262407024
1709730698998778400,19.4597783203125,5.489490032196045,2.6213409900665283,-4.636350154876709,0.3993460536003113,-0.2583376169204712,-0.8796501159667969,-1.635277509689331,1.4986482858657837,-0.36185067892074585,0.7854804780150599,0.2286731771137753,0.08878910915340983,-0.5681947898504061
1709730699008797400,19.46979736328125,5.390207290649414,2.6191794872283936,-4.754934787750244,0.4348728358745575,-0.2859683334827423,-0.8538780808448792,-1.6372044086456299,1.4895052909851074,-0.30496591329574585,0.7641546983944072,0.25525680599980155,0.08890965402135305,-0.5856677836328466
1709730699018816500,19.47981640625,5.229869842529297,2.5282866954803467,-4.8745574951171875,0.47080349922180176,-0.3089635968208313,-0.8263688683509827,-1.6267178058624268,1.4781988859176636,-0.22088760137557983,0.7415586673455957,0.280818857644545,0.08919827041523365,-0.6027230655464209
1709730699028835300,19.48983544921875,5.024802207946777,2.392549753189087,-4.991771697998047,0.5061587691307068,-0.3267368972301483,-0.7981517314910889,-1.6512088775634766,1.4765934944152832,-0.10367316007614136,0.7179091222452857,0.30480898158349007,0.08952992011886612,-0.6194208526146141
1709730699038854400,19.4998544921875,4.801975727081299,2.2340729236602783,-5.0770978927612305,0.5409060716629028,-0.33915001153945923,-0.7696738839149475,-1.6517918109893799,1.487160325050354,0.01117473840713501,0.6932910791507246,0.3271865237263326,0.09006691743669609,-0.6357549095749523
1709730699048873500,19.50987353515625,4.529656410217285,2.041769504547119,-5.149074077606201,0.5745909810066223,-0.34598544239997864,-0.7417137026786804,-1.632635474205017,1.4614028930664062,0.13551253080368042,0.6679599043347787,0.3476769522855617,0.09090594931898273,-0.6516795598924952
1709730699058892500,19.519892578125,4.242218017578125,1.8343693017959595,-5.195555210113525,0.6066901683807373,-0.34741130471229553,-0.7150051593780518,-1.6270453929901123,1.4269859790802002,0.29628872871398926,0.6421350161682587,0.36610555085894775,0.09200074694077323,-0.6672070040336536
1709730699068912400,19.529912353515623,3.944040536880493,1.5768318176269531,-5.195066928863525,0.6367241740226746,-0.34384700655937195,-0.6901822686195374,-1.6078851222991943,1.3950250148773193,0.44529402256011963,0.6161034115512017,0.3823672042624769,0.0932961698845512,-0.6822813121705938
1709730699078931500,19.539931396484373,3.6202564239501953,1.2935816049575806,-5.176019668579102,0.664121687412262,-0.3357859253883362,-0.6679746508598328,-1.5619487762451172,1.3491830825805664,0.5828001499176025,0.5901491532899449,0.3962950251068285,0.09467267029453778,-0.696929889161855
1709730699088950300,19.5499501953125,3.2925212383270264,1.0368635654449463,-5.198353290557861,0.6889315247535706,-0.32352566719055176,-0.6486173272132874,-1.5097934007644653,1.3080532550811768,0.6952482461929321,0.5643222050951567,0.40795517923560404,0.09624913410582445,-0.7112306960276504
1709730699098969300,19.55996923828125,2.873779296875,0.7599359750747681,-5.251220703125,0.7111972570419312,-0.3066399395465851,-0.6325901746749878,-1.4744267463684082,1.2764427661895752,0.8168095350265503,0.5387156185613785,0.41714887472619505,0.0984465184790616,-0.72531409402481
1709730699108988200,19.56998828125,2.493279457092285,0.5050448179244995,-5.267867088317871,0.730766773223877,-0.28548938035964966,-0.6200610995292664,-1.4495625495910645,1.2638829946517944,0.9310352206230164,0.5134457778015614,0.4239098553226652,0.10134051276374782,-0.7391914107977893
1709730699119007200,19.58000732421875,2.069765567779541,0.26877227425575256,-5.286864757537842,0.747572124004364,-0.2604697346687317,-0.6109757423400879,-1.4191572666168213,1.258531928062439,0.9772935509681702,0.48867978873400353,0.428339642917523,0.10505847753370243,-0.7527813746881223
1709730699129027300,19.59002734375,1.5830204486846924,0.02304745465517044,-5.31982421875,0.7615513205528259,-0.23154659569263458,-0.6053311228752136,-1.3991093635559082,1.2360479831695557,1.0365750789642334,0.4644825728902449,0.43042829293987045,0.10984501046416127,-0.7661079995615594
1709730699139046400,19.60004638671875,1.1367530822753906,-0.20036011934280396,-5.303730010986328,0.7725061178207397,-0.19887834787368774,-0.603060245513916,-1.3606257438659668,1.2702285051345825,1.0856499671936035,0.44101872213930826,0.43016870365420173,0.11586525304962214,-0.7791229457001438
1709730699149065500,19.6100654296875,0.6891095042228699,-0.43046629428863525,-5.239978313446045,0.7801908254623413,-0.1633816510438919,-0.6038283705711365,-1.3019193410873413,1.2933865785598755,1.1219711303710938,0.418499613517165,0.4277540225407721,0.12293211701506264,-0.7916894926452372
1709730699159084300,19.620084228515626,0.2708142399787903,-0.6760125160217285,-5.219995021820068,0.784373939037323,-0.12535516917705536,-0.6074895858764648,-1.2561910152435303,1.2485089302062988,1.1543035507202148,0.3969446555584423,0.42319432267350177,0.13100297599114538,-0.8038530316262816
1709730699169103400,19.630103271484376,-0.22917640209197998,-0.8907727599143982,-5.260708332061768,0.785068929195404,-0.0842871442437172,-0.6136469841003418,-1.1937296390533447,1.223111629486084,1.1540675163269043,0.37618528430918396,0.4164852438507433,0.1404156667574947,-0.8156643016136789
1709730699179122400,19.640122314453127,-0.6778085231781006,-1.051983118057251,-5.287328243255615,0.7823243737220764,-0.0400175079703331,-0.6215843558311462,-1.1176974773406982,1.2294400930404663,1.127962589263916,0.35612414012409477,0.4077813388977928,0.15140082514679096,-0.8270233989132829
1709730699189141200,19.650141357421877,-1.0208958387374878,-1.170106053352356,-5.302667140960693,0.7762359380722046,0.006653287913650274,-0.6304073333740234,-1.0423035621643066,1.1659541130065918,1.109395980834961,0.33663720916375234,0.39749390122783024,0.16369157124444447,-0.8377821800649161
1709730699199161300,19.660161376953123,-1.3582686185836792,-1.235781192779541,-5.402428150177002,0.7669082880020142,0.0556306354701519,-0.6393409967422485,-1.0003067255020142,1.0508757829666138,1.0913368463516235,0.3173935900668097,0.3858889348952109,0.17725470591927128,-0.8478984563307822
1709730699209180400,19.670180419921873,-1.5048519372940063,-1.335761547088623,-5.407269477844238,0.7542586922645569,0.1061100885272026,-0.6479463577270508,-0.9886947274208069,1.0362086296081543,1.1025972366333008,0.29823456649495117,0.3731974228123499,0.19170423505492298,-0.8573384632943629
1709730699219199500,19.680199462890624,-1.6891798973083496,-1.4551541805267334,-5.442588806152344,0.7379948496818542,0.15706615149974823,-0.6562725901603699,-0.9231603145599365,0.9756852984428406,1.1165845394134521,0.2791477091362327,0.35946278185153374,0.2065192632467239,-0.8661482125215479
1709730699229218600,19.690218505859374,-1.928231120109558,-1.5701110363006592,-5.547423362731934,0.7179057598114014,0.20911230146884918,-0.6639904975891113,-0.8135020732879639,0.885156512260437,1.1202588081359863,0.26000096418638236,0.34452915512823834,0.22204597430342726,-0.8742967046804005
1709730699239237400,19.7002373046875,-1.9888590574264526,-1.6338701248168945,-5.619475841522217,0.6939530372619629,0.2617746591567993,-0.670748233795166,-0.6973100304603577,0.8294423818588257,1.131136417388916,0.2406227253304077,0.32853597922155425,0.23809660446737785,-0.8817452828668314
1709730699249256400,19.71025634765625,-2.122878074645996,-1.642581820487976,-5.736262798309326,0.6664966344833374,0.31421372294425964,-0.6760561466217041,-0.6165394186973572,0.8102521896362305,1.106933832168579,0.2207702356633851,0.3118984804976932,0.25434478854164533,-0.8884190658374359
1709730699259275500,19.720275634765624,-2.2628796100616455,-1.5964186191558838,-5.9062299728393555,0.6356027126312256,0.36718109250068665,-0.6791077256202698,-0.5838296413421631,0.7527835369110107,1.052947998046875,0.20023906325364912,0.29467065338491416,0.2713214688833683,-0.8941242859921411
1709730699269295400,19.73029541015625,-2.2063393592834473,-1.5179529190063477,-6.004159450531006,0.6015167236328125,0.41934922337532043,-0.6799440383911133,-0.5793915390968323,0.7266926169395447,1.0058717727661133,0.17888784243485786,0.27719385639633976,0.28842946598717634,-0.898872188438693
1709730699279314200,19.740314208984376,-2.1584632396698,-1.4379541873931885,-6.129777908325195,0.5644131898880005,0.4696718752384186,-0.6788564920425415,-0.6008816957473755,0.7036985158920288,0.948494553565979,0.1566619249501385,0.2596539239235656,0.3052074482938377,-0.9027100018066028
1709730699289333200,19.750333251953126,-2.234649181365967,-1.3015766143798828,-6.317192554473877,0.5243101716041565,0.5184469223022461,-0.6755083799362183,-0.6261168718338013,0.6309060454368591,0.9187334775924683,0.13339192941421507,0.24208478742669046,0.3219328686636523,-0.9055168213767306
1709730699299352300,19.760352294921876,-2.3398897647857666,-1.2066515684127808,-6.526389122009277,0.4809706509113312,0.5661914348602295,-0.6693984866142273,-0.5897811055183411,0.6018535494804382,0.9123184680938721,0.10897449234264545,0.22438401674492076,0.3390465488932383,-0.9070962776117074
1709730699309371400,19.770371337890627,-2.4705660343170166,-1.138841152191162,-6.720516204833984,0.43403303623199463,0.6126199960708618,-0.6605391502380371,-0.5136076211929321,0.6029561161994934,0.9216780662536621,0.08350771829833425,0.20635722850451824,0.35657693621410946,-0.9073565918324701
1709730699319390200,19.78039013671875,-2.364959716796875,-1.0751863718032837,-6.806968688964844,0.3836597502231598,0.6564075946807861,-0.6495646834373474,-0.454704612493515,0.6249339580535889,0.9159221053123474,0.05716713435165627,0.18805830990751124,0.37396753783285397,-0.9063742832722232
1709730699329409300,19.7904091796875,-2.1011500358581543,-1.050487756729126,-6.790500640869141,0.3307734429836273,0.6951555609703064,-0.6382378935813904,-0.4765559136867523,0.6669202446937561,0.9483423233032227,0.0303345735126392,0.169762702766669,0.3899508528788557,-0.9045433815184962
1709730699339429400,19.800429443359373,-1.8062535524368286,-1.1263482570648193,-6.7357707023620605,0.275685578584671,0.7280368208885193,-0.6276621222496033,-0.5766805410385132,0.6775417327880859,0.989600658416748,0.003455095520800636,0.15125120311165388,0.40409405104390045,-0.9021191768847402
1709730699349448400,19.810448486328124,-1.531045913696289,-1.32607102394104,-6.708675384521484,0.21811185777187347,0.7550255060195923,-0.6183555722236633,-0.6825131177902222,0.7379706501960754,1.0212639570236206,-0.023203894613768254,0.13201998477715307,0.4164047765237556,-0.8992437031438798
1709730699359467300,19.82046728515625,-1.5944193601608276,-1.6142431497573853,-6.795130729675293,0.1572851687669754,0.7772607803344727,-0.6092020273208618,-0.7781805992126465,0.8053197860717773,1.0326486825942993,-0.04947207838784701,0.11143539493060645,0.42776296162028055,-0.8956302418158626
1709730699369486300,19.830486328125,-1.7262208461761475,-1.8301140069961548,-6.93261194229126,0.09274140000343323,0.795944094657898,-0.5982241630554199,-0.8744186758995056,0.849166989326477,1.0605502128601074,-0.07557940684122184,0.08932695739400741,0.43921361620359106,-0.8907300257125631
1709730699379505400,19.84050537109375,-1.8024570941925049,-2.0233027935028076,-7.063987731933594,0.024951139464974403,0.8105385303497314,-0.5851535797119141,-0.9585906863212585,0.8916708827018738,1.078622817993164,-0.10171267886290078,0.06593038619437364,0.4506399732008869,-0.8844384554572448
