time,seconds_elapsed,rotationRateX,rotationRateY,rotationRateZ,gravityX,gravityY,gravityZ,accelerationX,accelerationY,accelerationZ,quaternionW,quaternionX,quaternionY,quaternionZ,shot
1709730679621781800,0.082781738,-0.293482423,-0.059310541,-0.048886072,-0.026721019,-0.410708606,-0.911375046,0.002306953,-0.019101024,0.027021408081054688,0.9775928068866901,0.21006118307266608,-0.013666743,-3.05E-17,0
1709730679631800800,0.092800781,-0.23812063,-0.034192666,-0.035053082,-0.027052695,-0.408077031,-0.912546575,0.000242991,-0.025532037,0.029673099517822266,0.9778922216093338,0.2086469657798567,-0.013897785,-0.000307637,0
1709730679641837000,0.102837158,-0.330311537,-0.004232797,0.4143196642398834,-0.027683262,-0.40582931,-0.913529575,-0.027202602,-0.020150304,0.036362767,0.9781436551196391,0.207448731,-0.014150919,-2.60E-17,0
1709730679651856400,0.112856445,-0.256029069,0.23014961183071136,0.035870895,-0.027234841,-0.402950108,-0.914816618,-0.064180568,-0.008884609,0.041876554,0.9784724023300636,0.20590774964365155,-0.01391702,-8.28E-17,0
1709730679661875500,0.122875488,-0.281800449,0.1897309124469757,-0.081886366,-0.024764558,-0.400634259,-0.91590333,-0.108993985,0.014647931,0.050791025161743164,0.9787500173924437,0.2046650067127099,-0.012671687,-9.83814E-05,0
1709730679671894500,0.132894531,-0.333160311,-0.073618151,0.045207668,-0.02427537,-0.397708207,-0.917190731,-0.047395162,0.040606796741485596,0.049041926860809326,0.9790788061861404,0.2031021678818944,-0.012415107,-8.70679E-05,0
1709730679681913300,0.14291333,-0.371864051,-0.144288376,-0.029748596,-0.02550723,-0.394515127,-0.918535352,0.11065126955509186,0.026091665029525757,0.059785962,0.979422039,0.20139977442747165,-0.013055996,-0.000167402,0
1709730679691932400,0.152932373,-0.46581769,-0.099334754,-0.094401091,-0.026397385,-0.390592724,-0.92018503,0.091979653,-0.033922046,0.049060762,0.9798429467657636,0.1993050667650808,-0.01360029,-0.000639501,0
1709730679701951500,0.162951416,-0.396004528,-0.041093662,-0.109286562,-0.026640104,-0.386615276,-0.921856225,-0.003923245,-0.05093047,0.045711815,0.980268578,0.19718105079870946,-0.013838954,-0.001246772,0
1709730679711970600,0.172970459,-0.310228109,-0.003124176,-0.09296032,-0.026433626,-0.383360773,-0.923220336,-0.052469566,-0.028504461,0.030459105968475342,0.9806155171582462,0.1954440403355308,-0.013837107,-0.001801378,0
1709730679721989400,0.182989258,-0.241664231,0.000273805,-0.043877732,-0.026182098,-0.380862355,-0.924260974,-0.054994658,0.038210988,0.008474231,0.9808801552532667,0.19411288867394685,-0.013772852,-0.002155796,0
1709730679732009500,0.193009521,-0.267986923,0.005613976,-0.036510628,-0.026028901,-0.378560185,-0.925210595,-0.042864524,0.075764775,-0.02205503,0.9811216754328699,0.19288931650465072,-0.013726213,-0.002346605,0
1709730679742028500,0.203028564,-0.28805384,0.010292403399944305,-0.049965985,-0.025778828,-0.375957191,-0.926278353,-0.034111917,0.042598456144332886,-0.032477081,0.9813931612411437,0.19150674242725066,-0.013637368,-0.002580617,0
1709730679752047600,0.213047607,-0.283216983,-0.003003694,-0.042334162,-0.025560303,-0.37330845,-0.927355111,-0.025053095,0.026018410921096802,-0.030210197,0.9816667828205772,0.1901010871539517,-0.013565548,-0.00282322,0
1709730679762066400,0.223066406,-0.238955259,-0.012926794,-0.049672771,-0.02548017,-0.370876402,-0.928332627,-0.007692439,0.032802671,-0.031567276,0.9819148803844115,0.18881120035338794,-0.013565365,-0.003071578,0
1709730679772085500,0.233085449,-0.202774093,-0.005983667,-0.052637402,-0.025393203,-0.368822932,-0.929152727,0.003161142,0.047732263803482056,-0.031769454,0.9821227455133075,0.1877219325498329,-0.013568517,-0.003352551,0
1709730683168557800,3.629557861328125,-0.861875296,-0.816572011,-1.46978426,0.28420016169548035,-0.868296444,-0.40656054,-0.477986842,0.025034785270690918,0.1867729127407074,0.458926608,0.1414824849997253,0.5260251339471161,0.7019020717288474,1
1709730683178577000,3.639576904296875,-0.949170828,-0.948715687,-1.704768777,0.2943257987499237,-0.859937608,-0.416988492,-0.53788662,0.053205609,0.2205774188041687,0.4674737660315544,0.13830612780059515,0.5218976589277704,0.6999731186789732,1
1709730683188596000,3.649595947265625,-1.124979615,-1.097706079,-1.895202637,0.3054051399230957,-0.85017091,-0.428878933,-0.583908558,0.043072521686553955,0.26762402057647705,0.4771280960591588,0.13476203215262825,0.5171070820570391,0.6977021019491252,1
1709730683198615000,3.659614990234375,-1.202777743,-1.325548053,-2.112506151,0.3170926868915558,-0.838761628,-0.442641199,-0.642974675,0.003968537,0.33897292613983154,0.4880236682541176,0.13095894508642636,0.5113992190730451,0.6950924578547781,1
1709730683208635000,3.669634766,-1.252416611,-1.565738916,-2.257632732,0.32876938581466675,-0.826201797,-0.457494587,-0.72110337,-0.03019768,0.4400079846382141,0.5001036367024786,0.12743131527516421,0.5049890727087304,0.6918407993098203,1
1709730683218654000,3.679654052734375,-1.492929339,-1.729069591,-2.460556746,0.3404192626476288,-0.811925948,-0.474226773,-0.794291973,0.006597579,0.5275867581367493,0.5132406081793827,0.12373772284651252,0.4975696820096731,0.6882568359920189,1
1709730683228673000,3.689673095703125,-1.76788795,-1.910378814,-2.690406084,0.35234299302101135,-0.795078874,-0.493663996,-0.872820318,0.15149366855621338,0.5897180438041687,0.5275927182896555,0.1193809499187576,0.4887905433326733,0.6844545477344958,1
1709730683238692000,3.699692138671875,-2.104017973,-2.081076622,-2.89902854,0.36420831084251404,-0.77527529,-0.516043127,-0.893810391,0.2761908769607544,0.5692352652549744,0.5431166291858426,0.114264765,0.4784579244111856,0.6804748094452919,1
1709730683248711000,3.709710938,-2.497751713,-2.19340086,-3.144817352,0.37597623467445374,-0.75189513,-0.541567624,-0.850494146,0.3131439685821533,0.4939907193183899,0.559718816,0.10803591335080229,0.46641658728547797,0.6763863881589919,1
1709730683258730000,3.71972998,-2.914803982,-2.261096478,-3.418585777,0.3878142237663269,-0.724292874,-0.570087552,-0.841030836,0.32587069272994995,0.43947237730026245,0.5773445131819314,0.10032371709738196,0.4526492761999536,0.6720988925042289,1
1709730683268749000,3.729749023,-3.295530081,-2.280484915,-3.738601685,0.3998633623123169,-0.691882432,-0.60117209,-0.849646688,0.38649308681488037,0.4261842966079712,0.5959049425756187,0.090814251,0.4372261581995086,0.6674453284593784,1
1709730683278768000,3.739768066,-3.592368603,-2.266022444,-4.0534482,0.41208404302597046,-0.654748976,-0.633632839,-0.843221188,0.5014592409133911,0.3986932039260864,0.6152540800398596,0.079593439,0.4205335534680406,0.6620263807177486,1
1709730683288787000,3.749786865234375,-3.8121171,-2.237076759,-4.267985344,0.42391225695610046,-0.613066852,-0.666668892,-0.828377008,0.6076958179473877,0.3596315383911133,0.6350314562286233,0.066789784,0.4027464338403637,0.6557967863852032,1
1709730683298806000,3.759805908203125,-3.923331976,-2.189806223,-4.362966537,0.43432703614234924,-0.567979515,-0.69911319,-0.819077432,0.6616228222846985,0.3777173161506653,0.6546704733131199,0.052992829250242415,0.3842332201700156,0.6488166809017027,1
1709730683308825900,3.769825927734375,-3.919737101,-2.130233288,-4.497832298,0.4429391920566559,-0.520432115,-0.730037868,-0.861213148,0.6494299173355103,0.3810998797416687,0.673940248,0.038632657825524844,0.3653608803059933,0.640955158,1
1709730683318845000,3.779844970703125,-4.007886887,-2.018250942,-4.685880184,0.4502638876438141,-0.470362335,-0.758960962,-0.881568849,0.6431070566177368,0.3367807865142822,0.6928793649371309,0.023506238,0.3463624757568637,0.6319800489649058,1
1709730683328863700,3.78986377,-4.105588436,-1.897823334,-4.898284912,0.4563775658607483,-0.417157918,-0.785938203,-0.852312684,0.6860635876655579,0.3178747892379761,0.7115646504947263,0.007310273,0.3270741029860472,0.6218077952178415,1
1709730683338882800,3.799882813,-4.230037689,-1.744944811,-5.062007904,0.46122947335243225,-0.360965759,-0.810537517,-0.84823817,0.7146950364112854,0.29743021726608276,0.7298093672877259,-0.010008332,0.30762165076334363,0.6104481270880208,1
1709730683348902000,3.809901855,-4.435354233,-1.597596049,-5.262375355,0.4645783305168152,-0.301332951,-0.832685649,-0.855371237,0.683168888,0.2957136034965515,0.7475058823861785,-0.028678931,0.2878101765939951,0.5979779805737214,1
1709730685583161600,6.044161621,-0.836167812,-1.241473556,-1.163287401,0.2788226306438446,-0.871100128,-0.404280037,-0.332091123,0.072821438,0.17722925543785095,0.48911937641118236,0.16832090465710933,0.5191609127728107,0.6803691313893131,1
1709730685593180700,6.054180664,-0.793704212,-1.311695099,-1.224719882,0.28407925367355347,-0.864422679,-0.414816022,-0.396048278,0.084240794,0.201910138,0.4971766879106854,0.16754980265425595,0.5143141579871682,0.6783975695219399,1
1709730685603199700,6.064199707,-0.809125245,-1.437904954,-1.294799685,0.2890981435775757,-0.857406676,-0.425765127,-0.459981352,0.14051836729049683,0.23731908202171326,0.5056564354282126,0.1669814088902265,0.5091509045965035,0.6761612820069727,1
1709730685613218600,6.074218505859375,-0.844853938,-1.517152309,-1.407356262,0.2942490577697754,-0.84993428,-0.437068731,-0.52204752,0.17685389518737793,0.21685385704040527,0.5146375156412808,0.1664595565643989,0.5037428429243268,0.6735595816615555,1
1709730685623237600,6.084237548828125,-0.964504957,-1.637877107,-1.545737028,0.2997576594352722,-0.841545165,-0.449385017,-0.531386137,0.15926378965377808,0.18623194098472595,0.5243141627252207,0.16572419407912786,0.49783831612697554,0.6706616048993118,1
1709730685633256700,6.094256591796875,-1.197706103,-1.728832483,-1.7458992,0.30579277873039246,-0.831637084,-0.463541359,-0.53284359,0.13133496046066284,0.15743476152420044,0.5348843463032159,0.16445523807295256,0.49110467172206074,0.6675847830027776,1
1709730685643275800,6.104275879,-1.455355763,-1.815428853,-1.928820491,0.3126775324344635,-0.819684744,-0.479947567,-0.550394237,0.12081700563430786,0.15076971054077148,0.5464304952428707,0.16228085401917675,0.48341611511318183,0.6643700159811238,1
1709730685653295600,6.114295654296875,-1.805333614,-1.908648014,-2.126216888,0.3199883997440338,-0.805265427,-0.49915418,-0.583767116,0.12153440713882446,0.17675119638442993,0.5589368181868948,0.1591035493999915,0.4744564986237049,0.6611857636925429,1
1709730685663314700,6.124314697265625,-2.018714905,-2.021267891,-2.348295212,0.3278600573539734,-0.788189113,-0.520831704,-0.618967295,0.1124841570854187,0.21249735355377197,0.5724564250358767,0.15487278303698687,0.4643259293056562,0.6578065221900137,1
1709730685673333800,6.134333740234375,-2.082407236,-2.058769941,-2.533148766,0.33596768975257874,-0.76905942,-0.543758392,-0.616531134,0.12617623805999756,0.2654228210449219,0.5867539940127221,0.14999495619157172,0.45345598629200357,0.6539103904844819,1
1709730685683352800,6.144352783203125,-2.017127275,-2.142689466,-2.695794344,0.3442629873752594,-0.748753548,-0.566437185,-0.578134418,0.2047167420387268,0.41297948360443115,0.6015490733466404,0.1448790418536557,0.4424833120185772,0.6491203516003782,1
1709730685693371600,6.154371582,-2.129523993,-2.173927307,-2.797154903,0.35195213556289673,-0.727170646,-0.589366257,-0.583916306,0.3388803005218506,0.47451335191726685,0.6166209309849252,0.1395565183758586,0.4310926294062899,0.643787035,1
1709730685703390700,6.164390625,-2.185441494,-2.138617039,-3.0126791,0.35981374979019165,-0.703864813,-0.612460971,-0.566143155,0.43765997886657715,0.3767431974411011,0.6320154967822073,0.1335627780341867,0.4194406891703728,0.6377985239188378,1
1709730685713409500,6.174409423828125,-2.397847652,-2.119377375,-3.196179628,0.3679865002632141,-0.678230345,-0.63607353,-0.514226794,0.4163743257522583,0.2703660726547241,0.647795721,0.12657518914148227,0.40735975464470137,0.6311873355697799,1
1709730685723428600,6.184428711,-2.687553406,-2.036077738,-3.371248007,0.3763076364994049,-0.649492323,-0.660721064,-0.493922383,0.3503285050392151,0.1086275577545166,0.6638521679778108,0.11818062569640768,0.3945539416720383,0.6242281882664278,1
1709730685733447400,6.194447509765625,-2.939042807,-1.921804786,-3.565633059,0.3849537968635559,-0.61726135,-0.686147928,-0.507588744,0.3381476402282715,-0.028451681,0.6800835737232257,0.10812392409681917,0.38109741328335883,0.616895769,1
1709730685743466500,6.204466552734375,-3.244656801,-1.826185346,-3.781629324,0.39389416575431824,-0.581263423,-0.712025404,-0.535923004,0.3725079894065857,-0.109919786,0.69645348,0.096326923,0.3670264407883392,0.609069194,1
1709730685753485600,6.214485595703125,-3.348999023,-1.760873199,-3.884564877,0.4025420844554901,-0.541852593,-0.737804592,-0.553100586,0.44369280338287354,-0.089938939,0.7128269621712366,0.083128091,0.3524023555208265,0.6006496582153111,1
1709730685763505700,6.224505615234375,-3.448875666,-1.631235838,-3.89268446,0.41004621982574463,-0.500543296,-0.76244247,-0.54209578,0.5468079447746277,0.022879481315612793,0.7286741865131148,0.06925498,0.33761295584103923,0.5918236058019958,1
1709730685773524500,6.234524414,-3.476260185,-1.576985002,-3.982520342,0.41656091809272766,-0.457238972,-0.785754085,-0.445415348,0.665613055,0.14352691173553467,0.7439532284030793,0.054587826262715605,0.3227121640480975,0.5825894385509247,1
1709730685783543600,6.244543457,-3.318671227,-1.44170177,-4.091905117,0.42203354835510254,-0.413284928,-0.806897283,-0.32031849,0.7732855677604675,0.16259491443634033,0.7588521386968211,0.039885187,0.3081566422167292,0.5723566581274601,1
1709730685793562600,6.254562744140625,-3.410053492,-1.229971766,-4.226305962,0.42738085985183716,-0.368078947,-0.825750232,-0.251981109,0.7377536296844482,0.088521838,0.7731959031237892,0.024490624907147027,0.2941514588050227,0.5612871148619984,1
1709730685803581700,6.264581787109375,-3.458047867,-1.016779065,-4.432457447,0.43293166160583496,-0.320740521,-0.842434406,-0.259073049,0.6154030561447144,-0.027545452,0.787141294,0.007978592,0.2805693323079835,0.5492046601118632,1
1709730688338415000,8.799415039,-5.450136185,-1.856704473,-6.938322067,0.4954785704612732,-0.181313515,-0.849485993,-1.431941032,0.8793268203735352,0.30871450901031494,0.7822362965096843,-0.073158567,0.2643952339985453,0.559329466,1
1709730688348434200,8.809434082,-5.260506153,-1.53846693,-7.116095543,0.49085330963134766,-0.10051395,-0.865424752,-1.431786537,0.9026532173156738,0.2901836633682251,0.8014026895091059,-0.098633207,0.23991480434991339,0.5389491981185744,1
1709730688358453000,8.819452880859375,-5.009887695,-1.311020732,-7.342876434,0.48277548,-0.020406816,-0.875506401,-1.410174131,0.9603177309036255,0.25839513540267944,0.8192728003491643,-0.123981825,0.21650709189129225,0.5162802931353456,1
1709730688368472000,8.829472168,-4.851178169,-1.078532338,-7.573540211,0.47082462906837463,0.058547042310237885,-0.880281985,-1.344039321,1.0099496841430664,0.1860986351966858,0.835959243,-0.149035669,0.19402929913898306,0.4912362419811782,1
1709730688378492200,8.839492188,-4.491604328,-0.830650508,-7.779402733,0.4548978805541992,0.13571889698505402,-0.880141079,-1.238863945,1.0313953161239624,0.15389901399612427,0.8514250203707514,-0.173685643,0.1725188959666504,0.46383820673871784,1
1709730688388511200,8.84951123,-4.181466103,-0.620777726,-7.741422176,0.43516379594802856,0.20823316276073456,-0.875940323,-1.132505774,1.0074803829193115,0.14386940002441406,0.8655279845387446,-0.196877769,0.15254177461635768,0.4345474230396401,1
1709730688398530300,8.859530273,-4.242392063,-0.553349972,-7.680448055,0.4113124907016754,0.2777896225452423,-0.868133068,-1.050091267,0.9483913779258728,0.13244575262069702,0.8777265041309265,-0.219588652,0.13309509648110904,0.40455257451839755,1
1709730688408549000,8.869549072265626,-3.921839952,-0.407551229,-7.736091614,0.3830057978630066,0.34397584199905396,-0.857313931,-1.013743162,1.0060607194900513,0.17013436555862427,0.8883197945289035,-0.241550489,0.11400179291141836,0.37355690701280336,1
1709730688418568200,8.879568115234376,-3.596726179,-0.18111974,-7.719519138,0.351510227,0.40438780188560486,-0.844340622,-0.976830721,1.1292883157730103,0.22111058235168457,0.8975933319747936,-0.261856086,0.096234576,0.3413157489467149,1
1709730688428587300,8.889587158203126,-3.28763175,-0.079332128,-7.711757183,0.31705453991889954,0.4591802954673767,-0.829837263,-0.887244999,1.274111270904541,0.26762717962265015,0.9055198987985311,-0.2806234,0.079573096,0.30814339028591664,1
1709730688438606000,8.899606201171874,-3.065175056,0.036841295659542084,-7.617491245,0.2796337306499481,0.5081914067268372,-0.814583659,-0.745408297,1.4329249858856201,0.3392266035079956,0.9121435448273751,-0.297737836,0.063720945,0.27438305557778664,1
1709730688448625200,8.909625244140624,-3.028203726,0.17376504838466644,-7.466134071,0.24041785299777985,0.5523790717124939,-0.798170805,-0.584488273,1.4847607612609863,0.3547656536102295,0.9171950021945728,-0.313907372,0.048752097,0.24049688977854583,1
1709730688458644200,8.919644287109374,-3.193832636,0.1503954976797104,-7.194716454,0.19966401159763336,0.5930768251419067,-0.779996216,-0.481585443,1.4022233486175537,0.31741082668304443,0.9203960489122985,-0.32989158,0.034255273,0.20704859569618983,1
1709730688468664000,8.929664063,-3.537356853,-0.175001234,-6.677901268,0.15711897611618042,0.6314835548400879,-0.759303749,-0.430236071,1.237687587738037,0.3113362193107605,0.9213487041809852,-0.346373785,0.019322044628481607,0.17540919888255313,1
1709730688478683100,8.939683105,-3.7785151,-0.456704974,-6.153080463,0.11286253482103348,0.6676706075668335,-0.735851884,-0.413750619,1.1850361824035645,0.31924116611480713,0.9200027400761902,-0.363404141,0.003391194,0.14669992407138693,1
1709730688488702000,8.949701904296875,-3.448966026,-0.389548302,-5.783548832,0.068886802,0.6995031833648682,-0.711301565,-0.387414038,1.4820306301116943,0.3542001247406006,0.9171954021291829,-0.379739316,-0.012135475,0.12001392054573574,1
1709730688498721000,8.959720947265625,-2.89228487,-0.035413831,-5.585524559,0.026643279939889908,0.7244056463241577,-0.688858867,-0.317323238,2.0596060752868652,0.23706144094467163,0.9141018906374441,-0.39357147,-0.02592404,0.094058783,1
1709730688508740000,8.969739990234375,-2.810341597,0.3135385811328888,-5.244470119,-0.012206665,0.7439156770706177,-0.668161929,-0.16365087,2.4149739742279053,0.083582461,0.910706646,-0.40562771,-0.037218156,0.068514769,1
1709730688518759000,8.979759033203125,-3.096474886,0.4828655421733856,-4.874609947,-0.047705151,0.7618118524551392,-0.646039307,0.087530598,2.3676741123199463,-0.022173524,0.9061341807864535,-0.418096024,-0.046648199,0.044049575384270574,1
1709730688528778000,8.989778076171875,-3.356294155,0.7176386713981628,-4.564749718,-0.080342852,0.7793207168579102,-0.621453345,0.3179832398891449,2.0807714462280273,-0.123999596,0.9001677561375023,-0.431627386,-0.054508153,0.020608181380303795,1
1709730688538797000,8.999797119140625,-3.467043877,0.8946002721786499,-4.280058384,-0.110260785,0.7959736585617065,-0.595204592,0.4247749447822571,1.746567726135254,-0.156077147,0.8930834582951701,-0.445772036,-0.060704256,-0.002055818,1
1709730688548816100,9.009816162109376,-3.137288094,0.8298737406730652,-3.894558668,-0.138212219,0.810343325,-0.569421709,0.4038829803466797,1.4910939931869507,-0.205297589,0.8855324960436608,-0.459281407,-0.065952589,-0.023303679,1
1709730688558836200,9.019836181640626,-2.706099987,0.9515617489814758,-3.418730497,-0.163160577,0.8210831880569458,-0.546992719,0.4538862705230713,1.3813245296478271,-0.280216753,0.8784587808278568,-0.470734417,-0.070090912,-0.042504457,1
1709730688568855000,9.02985498,-2.342997789,1.1366547346115112,-3.106203556,-0.184414759,0.8290333151817322,-0.527915657,0.5931824445724487,1.4066386222839355,-0.322838187,0.8719747798690051,-0.480385375,-0.072609066,-0.060147769,1
1709730688578874000,9.039874023,-2.017674923,1.278607964515686,-2.872906923,-0.203060523,0.834520161,-0.512193799,0.575283408,1.4240399599075317,-0.30775255,0.8661291015876679,-0.488312011,-0.073854549,-0.076923543,1
1709730688588893200,9.049893066,-1.859378219,1.260752558708191,-2.605913162,-0.219552547,0.8385032415390015,-0.498707324,0.5087676048278809,1.234937310218811,-0.405681133,0.8606837501264436,-0.495106341,-0.074270137,-0.092612782,1
1709730688598912300,9.059912353515625,-1.836135507,1.253368616104126,-2.394211531,-0.234358057,0.8419091105461121,-0.48607114,0.5683271884918213,0.9799291491508484,-0.470761746,0.8553063638268054,-0.501461631,-0.074166428,-0.107174721,1
1709730688608931000,9.069931152,-1.654371262,1.2032498121261597,-2.169883966,-0.247807652,0.8448598384857178,-0.474134028,0.6125690340995789,0.8727761507034302,-0.463030308,0.8499985474110462,-0.507444388,-0.07371011,-0.120703546,1
1709730688618950100,9.079950195,-1.306556106,1.2037310600280762,-1.809338331,-0.259082198,0.8467732667922974,-0.464598358,0.5280641317367554,0.9037914276123047,-0.464692473,0.845380979,-0.512254143,-0.072777147,-0.132779169,1
1709730688628969200,9.089969238,-1.026471972,1.2386749982833862,-1.476237655,-0.267310172,0.8477920889854431,-0.458032668,0.44850829243659973,0.9553238153457642,-0.477041245,0.8417180607573116,-0.515694997,-0.07100942,-0.143273023,1
1709730688638988000,9.099988037109375,-0.764152229,1.2374860048294067,-1.22976768,-0.273160934,0.8482578992843628,-0.45369786,0.4130687117576599,0.9493801,-0.450965285,0.8388073695221355,-0.518111384,-0.068641513,-0.152483531,1
1709730688649007000,9.110007080078125,-0.481632084,1.2288496494293213,-0.973618984,-0.276934534,0.8479967713356018,-0.451894701,0.38948336243629456,0.8534191846847534,-0.41364491,0.8367645755633285,-0.51934353,-0.065840309,-0.160538118,1
1709730688659027200,9.120027099609375,-0.275084496,1.188230037689209,-0.755416572,-0.278775573,0.8473110198974609,-0.452048928,0.4029821455478668,0.7253513336181641,-0.37622869,0.8354647563220813,-0.519655903,-0.062715865,-0.167400956,1
1709730688669046300,9.130046387,-0.078472644,1.1545101404190063,-0.572629988,-0.279089332,0.8462534546852112,-0.453832835,0.413778692,0.6736440062522888,-0.307031453,0.8347990435147707,-0.519188291,-0.059389403,-0.173282894,1
1709730688679065300,9.14006543,0.049002219,1.0910038948059082,-0.414183348,-0.27813226,0.8449108004570007,-0.456911564,0.40667232871055603,0.649183989,-0.250257045,0.8346718665761711,-0.518085477,-0.055961253,-0.178265648,1
1709730688689084200,9.150084228515626,0.1302049309015274,1.0392323732376099,-0.256672293,-0.276097894,0.8435508012771606,-0.460643023,0.4129692316055298,0.6000832319259644,-0.210926831,0.8348953789286448,-0.516647806,-0.052474073,-0.182403927,1
1709730688699103200,9.160103271484376,0.17151615023612976,0.9593465328216553,-0.126582742,-0.273062468,0.8423527479171753,-0.464627504,0.41477084159851074,0.5218134522438049,-0.172167599,0.83534953,-0.515067277,-0.048907564,-0.185755004,1
1709730688709122300,9.170122314453126,0.26960116624832153,0.9029884934425354,0.001368043,-0.269247293,0.8411133885383606,-0.469077975,0.40190720558166504,0.42438948154449463,-0.122398496,0.8360954940957711,-0.513226173,-0.045386206,-0.188370049,1
1709730688719141000,9.180141113,0.28688669204711914,0.8049503564834595,0.10091966390609741,-0.264766872,0.8399596214294434,-0.473673224,0.3859827518463135,0.36095279455184937,-0.07654348,0.8370380041940526,-0.511277694,-0.041934645,-0.190273412,0
1709730688729160200,9.190160156,0.3689575791358948,0.7586776614189148,0.1810440570116043,-0.259872317,0.8387318253517151,-0.47853452,0.35507190227508545,0.34446513652801514,-0.045925319,0.8381821649324466,-0.509157266,-0.038621479,-0.191619235,0
1709730688739180000,9.200179931640625,0.36681532859802246,0.6614521145820618,0.2441314160823822,-0.254638165,0.8375220894813538,-0.4834418,0.3190608024597168,0.3020041584968567,-0.044710666,0.839453476,-0.50697451,-0.035439398,-0.192454158,0
1709730688749199000,9.210199219,0.39789894223213196,0.6010979413986206,0.29620474576950073,-0.249340117,0.8363348841667175,-0.488235086,0.28712087869644165,0.2292473316192627,-0.041977346,0.8407880171139641,-0.504803866,-0.032488685,-0.192855021,0
1709730688759218200,9.220218262,0.3769689202308655,0.5445927977561951,0.3467366099357605,-0.24380751,0.8352078199386597,-0.492935896,0.25029250979423523,0.19170862436294556,-0.026091814,0.8421804999280742,-0.502646899,-0.0296335,-0.192872974,0
1709730688769237000,9.230237060546875,0.36066505312919617,0.48973435163497925,0.3678738474845886,-0.238291919,0.8342540860176086,-0.497229338,0.2231704741716385,0.18831360340118408,-0.010064363,0.8435140211593342,-0.500659801,-0.026927477,-0.192610341,0
1709730688779256000,9.240256103515625,0.33392342925071716,0.4654681384563446,0.4015050530433655,-0.232684955,0.8334187865257263,-0.501269281,0.19919192790985107,0.1785135269165039,0.004229426,0.8448214901534195,-0.498774108,-0.024284832,-0.1921233,0
1709730688789275100,9.250275146484375,0.26824456453323364,0.4072865843772888,0.4168089032173157,-0.227051571,0.8328419923782349,-0.50479883,0.19517599046230316,0.12147319316864014,0.02823627,0.8460177818198243,-0.497121779,-0.02169167,-0.191450575,0
1709730688799294200,9.260294189453125,0.2703673541545868,0.3516501188278198,0.4254154562950134,-0.221651271,0.8324428200721741,-0.507847965,0.18962307274341583,0.061172843,0.05693543,0.847116023,-0.495684364,-0.019314008,-0.190573749,0
1709730688809313000,9.270312988,0.2988775670528412,0.3351976275444031,0.4354494512081146,-0.216318741,0.8319393396377563,-0.510962903,0.1762339174747467,0.041488945,0.061332166,0.8482595102692331,-0.494193651,-0.017063737,-0.189571217,0
1709730688819332000,9.280332031,0.28210070729255676,0.3153071105480194,0.42427587509155273,-0.211054206,0.8313338160514832,-0.514140248,0.14510571956634521,0.042826891,0.046717703342437744,0.849430568,-0.492653984,-0.014897664,-0.188514816,0
1709730688829351200,9.290351074,0.24691584706306458,0.3079370856285095,0.41147884726524353,-0.205974564,0.8308522701263428,-0.516970873,0.098247528,0.017795742,0.046008348,0.8504907996074552,-0.491274771,-0.012793226,-0.187485222,0
1709730688839371300,9.300371337890626,0.21069657802581787,0.28260722756385803,0.39474940299987793,-0.20106931,0.8304979205131531,-0.519465446,0.063435033,-0.021995783,0.032099724,0.851447424,-0.490052706,-0.010753444,-0.186467007,0
1709730688849390000,9.310390137,0.20710211992263794,0.2787398099899292,0.35705530643463135,-0.196492523,0.8301671147346497,-0.521740556,0.023290008306503296,-0.041211426,0.012417435646057129,0.852317403,-0.488929092,-0.008834806,-0.185540609,0
1709730688859409000,9.320408935546874,0.24722342193126678,0.2822467088699341,0.32241955399513245,-0.192212313,0.8296468257904053,-0.524156868,-0.033541471,-0.005168736,-0.000501335,0.8531919787720019,-0.487721547,-0.007017676,-0.184774972,0
1709730688869428000,9.330427978515624,0.3150072693824768,0.2905310094356537,0.3062581717967987,-0.188096985,0.8287603855133057,-0.527044356,-0.084562302,0.023702323,-0.018381059,0.8541792256969236,-0.486261095,-0.00528967,-0.184119534,0
1709730688879447000,9.340447021484374,0.3479745388031006,0.2697628438472748,0.2873673141002655,-0.184140474,0.827572227,-0.530298471,-0.119662017,-0.011059165,-0.017354727,0.855259169,-0.484600185,-0.00366521,-0.183523522,0
1709730688889466000,9.350466064453125,0.4763365089893341,0.2508791983127594,0.28268226981163025,-0.180424795,0.8259252309799194,-0.534129441,-0.146769404,-0.038571775,-0.008259475,0.8565055985305369,-0.482628439,-0.002248581,-0.182928463,0
1709730688899485000,9.360484863,0.5983822345733643,0.2666504979133606,0.2975429594516754,-0.176651493,0.8235355019569397,-0.53905797,-0.171752438,-0.043231606,-0.031834364,0.8580757563714175,-0.480073036,-0.000939501,-0.182304723,0
1709730688909504000,9.370503906,0.6590788960456848,0.2659396827220917,0.28360798954963684,-0.172784746,0.8206083178520203,-0.544745326,-0.186178252,-0.059454143,-0.039925694,0.8598629228049601,-0.477102948,0.000335881,-0.181682357,0
1709730688919523800,9.380523926,0.7824727296829224,0.22155404090881348,0.25333157181739807,-0.16925016,0.8171707391738892,-0.550986767,-0.201889381,-0.06880343,-0.025719225,0.861793695,-0.473819281,0.001385182,-0.181121414,0
1709730688929543000,9.390542969,0.9819884896278381,0.18538086116313934,0.2615511417388916,-0.166028336,0.8126749396324158,-0.558564305,-0.214663193,-0.08270973,-0.039198816,0.8641212124795171,-0.469801677,0.002060294,-0.180490018,0
1709730688939561700,9.400561767578125,1.1641181707382202,0.11829578131437302,0.21566009521484375,-0.163183451,0.8070787191390991,-0.567446172,-0.234796286,-0.099971175,-0.086408198,0.8668252320981474,-0.465049872,0.002348974,-0.179825601,0
1709730688949580800,9.410580810546875,1.4854780435562134,0.026094749569892883,0.1651039719581604,-0.161215127,0.7998017072677612,-0.578210175,-0.277734458,-0.099041879,-0.134253263,0.8700550099149038,-0.459228897,0.001933431,-0.179191149,0
1709730688959599900,9.420599853515625,1.9657964706420898,0.1185416430234909,0.1723214089870453,-0.159671307,0.7899230122566223,-0.592052877,-0.307201833,-0.116979957,-0.187381268,0.8741325372719138,-0.451633255,0.000974879,-0.178657845,0
1709730688969619000,9.430618896484376,2.060340642929077,0.12945501506328583,0.11477449536323547,-0.157615021,0.7780100107192993,-0.608159363,-0.333321244,-0.15792346,-0.267756164,0.8788153486117337,-0.442628876,8.95868E-05,-0.178222087,0
1709730690662850600,11.12385059,-0.38668561,-0.512923717,-1.138805747,0.11411942541599274,-0.947855473,-0.297567874,-0.330244929,0.067484438,0.13146066665649414,0.41975119110985165,0.24616181520484204,0.539092218,0.6874538577738362,1
1709730690672869400,11.133869384765624,-0.43396017,-0.56649828,-1.321484804,0.12418489158153534,-0.945173919,-0.302033842,-0.393960297,0.076658905,0.16214126348495483,0.4259376301938233,0.2438377589621016,0.5380764089251804,0.6852693556397134,1
1709730690682888400,11.143888427734375,-0.537336648,-0.643247366,-1.524905801,0.13577871024608612,-0.941838264,-0.307416558,-0.462667763,0.080281198,0.21122506260871887,0.43302414792255955,0.24103312733036236,0.5368377383279673,0.6827872639257825,1
1709730690692907500,11.153907470703125,-0.677492917,-0.737468421,-1.763126135,0.14908525347709656,-0.937607348,-0.314111531,-0.530310869,0.10945188999176025,0.27956563234329224,0.44120892678377344,0.23765395759943342,0.535224093,0.6799929804657878,1
1709730690702926300,11.16392626953125,-0.899332166,-0.873607814,-1.986037731,0.16410447657108307,-0.93218267,-0.322653174,-0.558803618,0.14144176244735718,0.3203490674495697,0.4506474272678351,0.2336193734053265,0.5330059986727901,0.676936763,1
1709730690712945400,11.17394531,-1.140099168,-1.034569263,-2.188432217,0.1804145872592926,-0.925196528,-0.333859324,-0.557566106,0.18311583995819092,0.37923890352249146,0.4614400339445611,0.22892955204519952,0.5297750381706521,0.6737973102993057,1
1709730690722964500,11.183964599609375,-1.403883934,-1.254830122,-2.318615198,0.19732527434825897,-0.916631758,-0.347633213,-0.549910128,0.2248135805130005,0.4470289647579193,0.47347535196463025,0.22386363522624866,0.525422178,0.6705502242000284,1
1709730690732984600,11.193984619140625,-1.647987366,-1.443487763,-2.449920416,0.21429388225078583,-0.906174958,-0.364589065,-0.530227125,0.22819644212722778,0.5157731175422668,0.48675529797286604,0.21843582707972165,0.5196068279567292,0.6673558895483697,1
1709730690743003600,11.204003662109375,-1.721199036,-1.589770436,-2.467653751,0.23081457614898682,-0.894419968,-0.383063495,-0.500834107,0.23125779628753662,0.5481177568435669,0.5006704074244592,0.21297272013154472,0.5129433438329551,0.6639736137829225,1
1709730690753022500,11.21402246,-2.016968966,-1.766916156,-2.600182295,0.2466510683298111,-0.881035268,-0.403658241,-0.517082632,0.19985252618789673,0.5261558294296265,0.5153103262394148,0.20737889357835174,0.5051384638150269,0.6605182098643246,1
1709730690763041500,11.22404150390625,-2.288511992,-1.843887448,-2.812561035,0.2627857029438019,-0.865138531,-0.427175492,-0.605223477,0.19239383935928345,0.5309200286865234,0.5309716738864843,0.2008949509398844,0.49603777533081567,0.6570058577129899,1
1709730690773060600,11.23406055,-2.464569569,-2.032154083,-3.011334181,0.27930495142936707,-0.846727312,-0.452815205,-0.670265675,0.2599353790283203,0.5624343156814575,0.5476348994459129,0.19361791165920056,0.4859058613482347,0.6530724739872111,1
1709730690783079400,11.244079345703126,-2.523994923,-2.148184299,-3.145093441,0.2952941954135895,-0.826154411,-0.479864717,-0.669134617,0.3263070583343506,0.5607668161392212,0.565119558,0.18608000280948545,0.4748072035622189,0.6485153274886276,1
1709730690793098500,11.254098388671874,-2.700666428,-2.181571007,-3.318220377,0.3109115660190582,-0.80354923,-0.507585108,-0.659849524,0.38951730728149414,0.5895400047302246,0.5829936482019175,0.17805714586503243,0.4631447929189727,0.6433591515308758,1
1709730690803117600,11.26411767578125,-3.066705942,-2.184864759,-3.603898048,0.3268432915210724,-0.777394295,-0.537430465,-0.68685925,0.4520464539527893,0.64094609,0.6016028989814485,0.16860728399996783,0.45039577792016905,0.6378001728422521,1
1709730690813137400,11.274137451171875,-3.28548193,-2.141712427,-3.889627695,0.3435018062591553,-0.747140765,-0.569023073,-0.710658789,0.534845233,0.6570205092430115,0.6209386417036037,0.1574005672161972,0.4367075936408075,0.6316223577025193,1
1709730690823156500,11.284156494140625,-3.602520943,-2.151704311,-4.126085281,0.3602389097213745,-0.712901056,-0.601664424,-0.688012958,0.5774335265159607,0.6249797940254211,0.6407632803506327,0.14469837011903447,0.42217316709289904,0.6247036635638987,1
1709730690833175300,11.29417529296875,-3.909260511,-2.104363918,-4.366708279,0.3765525221824646,-0.673842251,-0.63572377,-0.668498993,0.587187648,0.5853545665740967,0.6609969301446402,0.13021559199872534,0.4064258967025434,0.6172072670218061,1
1709730690843194400,11.30419434,-4.230273724,-2.086910009,-4.569116592,0.3920654058456421,-0.630037248,-0.67032665,-0.680563331,0.6077442169189453,0.5774311423301697,0.6813904584808238,0.11407165198680208,0.38964641419992446,0.6089913572697967,1
1709730690853213700,11.314213623046875,-4.511944771,-2.025166273,-4.747183323,0.40615981817245483,-0.581192195,-0.705159366,-0.721498013,0.5871889591217041,0.49034619331359863,0.7017273662419605,0.096230909,0.3716986893018845,0.6001318856599329,1
1709730690863232800,11.324232666015625,-4.645588398,-2.017676353,-4.92424345,0.41843766,-0.528045058,-0.738971174,-0.746593237,0.575286329,0.40230119228363037,0.7218157058000705,0.077139074,0.3529362330899041,0.5903115690940589,1
1709730690873251800,11.33425195,-4.822167873,-1.944416642,-5.051648617,0.4283617436885834,-0.47108373,-0.771094263,-0.754991412,0.5581961870193481,0.34186452627182007,0.7414353432601285,0.057050776,0.33346376094544256,0.5795004549373907,1
1709730690883270700,11.344270751953125,-4.836595535,-1.815502524,-5.283361435,0.4363211691379547,-0.410547256,-0.800671518,-0.743678987,0.5611515045166016,0.36877143383026123,0.7604500023084043,0.035870037,0.3136520294762256,0.5674959500553104,1
1709730690893290800,11.354290771484376,-4.792041302,-1.684173226,-5.52170372,0.4426007568836212,-0.347484946,-0.826655209,-0.716236651,0.5911678075790405,0.41895562410354614,0.7788960304140988,0.013993142771946956,0.29406903,0.5537586338753264,1
1709730690903309800,11.364309814453126,-4.731387138,-1.602726221,-5.723920345,0.44657018780708313,-0.282387942,-0.849018335,-0.657110929,0.6316463947296143,0.4021036624908447,0.7967039452223967,-0.008334815,0.27462951387687234,0.5383046573608021,1
1709730690913329000,11.374328857421874,-4.662508011,-1.448970199,-5.802876949,0.44778987765312195,-0.216140866,-0.86762166,-0.567006826,0.6935120820999146,0.25058674812316895,0.8135981745121436,-0.030857706,0.2554152830618497,0.5214104889471911,1
1709730690923348000,11.384347900390624,-4.646839619,-1.242967725,-5.857331276,0.44666174054145813,-0.149217501,-0.882171988,-0.49190408,0.7050188779830933,0.084610343,0.8292298765674406,-0.053734225,0.23669948641218191,0.503451769,1
1709730690933366800,11.39436669921875,-4.598710537,-1.077168345,-5.974526882,0.44323286414146423,-0.081688188,-0.892676651,-0.473506331,0.6431200504302979,-0.024681747,0.8436642295306181,-0.077007636,0.21847536787042993,0.484323162,1
1709730690943385900,11.40438574,-4.379086971,-0.959679186,-6.077874184,0.4369352161884308,-0.01471644,-0.899372578,-0.450301945,0.5885689854621887,-0.085200787,0.8570793051186646,-0.100050467,0.2007576010698955,0.4637901847345585,1
1709730690953405000,11.414405029296875,-4.271302223,-0.871417761,-6.055707932,0.42766010761260986,0.050634675,-0.902520359,-0.374208599,0.5919739603996277,-0.08237344,0.8693236713018527,-0.122535953,0.18364304483246702,0.442195172,1
1709730690963423700,11.42442383,-4.013261318,-0.795602381,-5.946187019,0.4151313900947571,0.11349199712276459,-0.902654707,-0.309723705,0.6680021286010742,-0.033426225,0.8802656116131277,-0.144160595,0.1670041211343795,0.4200711709339871,1
1709730690973443800,11.43444384765625,-3.810247421,-0.697420418,-5.793155193,0.3998832702636719,0.17288728058338165,-0.900112987,-0.285488129,0.8045907020568848,-0.055850148,0.8898603458475292,-0.164673936,0.15108279857542284,0.3977498683506533,1
1709730690983463000,11.44446289,-3.690797091,-0.542868376,-5.636121273,0.3828704059123993,0.22884199023246765,-0.895009279,-0.227841109,0.962228537,-0.020624876,0.8980983810849144,-0.184300692,0.1361198940770773,0.3753981596461794,1
1709730690993482000,11.45448193359375,-3.490722656,-0.440542519,-5.590231895,0.36405786871910095,0.28202003240585327,-0.887652278,-0.159895271,1.0952229499816895,0.052508235,0.9051755634815565,-0.203281756,0.12186213219194318,0.35282214508511206,1
1709730691003501000,11.46450098,-3.471541643,-0.378247291,-5.489887238,0.3434193730354309,0.3323979675769806,-0.878393233,-0.10265097,1.1029353141784668,0.013433516025543213,0.9111810413497695,-0.221586678,0.10817911751091375,0.33006914356924816,1
1709730691013520000,11.474519775390625,-3.377255201,-0.32755962,-5.401670456,0.3208180367946625,0.38053396344184875,-0.867334783,-0.01709187,0.9796039462089539,-0.019277155,0.9161037327967123,-0.239480218,0.09477246,0.30728056299717654,1
1709730691023539000,11.48453906,-3.257258177,-0.232038692,-5.26884079,0.2968367338180542,0.42575064301490784,-0.854765654,0.066505551,0.80732739,-0.109116793,0.9200051344614426,-0.256722511,0.081918949,0.2845582559617852,1
1709730691033558000,11.49455810546875,-3.075834274,-0.193068653,-4.930315018,0.2721230387687683,0.4669221043586731,-0.841387391,0.1714346706867218,0.6554685831069946,-0.255185485,0.922949602,-0.272812082,0.069856057,0.2624073848845779,1
1709730691043576800,11.504576904296876,-3.121142864,-0.108525008,-4.797236919,0.24698886275291443,0.5057514905929565,-0.826566339,0.27914944291114807,0.625062108,-0.425829291,0.9247046238532006,-0.288660914,0.058238414984382855,0.2412557232515454,1
1709730691053596700,11.51459668,-2.443022013,0.3415886163711548,-4.61621809,0.22315694391727448,0.5398198962211609,-0.811662138,0.24797342717647552,0.8208673596382141,-0.607939303,0.925999235,-0.30300642,0.048539,0.21990093715017756,1
1709730691063615700,11.52461572265625,-2.034780502,0.5252686738967896,-4.205778599,0.20231832563877106,0.5670998096466064,-0.798414111,0.15604959428310394,1.042320966720581,-0.604875684,0.9271031157819635,-0.314757855,0.041478125,0.19921556002245502,1
1709730691073634800,11.53463477,-1.975285649,0.5099517703056335,-3.90241313,0.18305395543575287,0.5906990766525269,-0.785853565,0.21193504333496094,1.1175071001052856,-0.557972729,0.9276492326239386,-0.325283129,0.035554073,0.1799824985172215,1
1709730691083654000,11.54465380859375,-1.775270104,0.6098003387451172,-3.65259409,0.1645333170890808,0.6120031476020813,-0.773550868,0.3233054280281067,1.1787683963775635,-0.479775548,0.9276884980223646,-0.335127008,0.030239914997688272,0.16176982376845842,1
1709730691093672700,11.554672607421875,-1.574092984,0.5926602482795715,-3.315237045,0.14754189550876617,0.6303895115852356,-0.76212889,0.47892293334007263,1.1764341592788696,-0.416368425,0.9274172481861497,-0.34389961,0.025857403,0.14478163110532669,1
1709730691103691800,11.56469189453125,-1.297825694,0.5203527808189392,-3.012265205,0.1315285563468933,0.6456774473190308,-0.752197385,0.5826895833015442,1.0547620058059692,-0.363876224,0.9270293105274928,-0.351311405,0.021945206,0.12928823670291834,1
1709730691113710800,11.57471094,-1.174851298,0.41113972663879395,-2.7673769,0.11617155373096466,0.6584655046463013,-0.743590891,0.5876553654670715,0.8927735090255737,-0.275360525,0.9265668419090616,-0.357592122,0.018232532256632704,0.11519301795082472,1
1709730691123731000,11.58473095703125,-0.989268422,0.4070492386817932,-2.561121464,0.10135399550199509,0.6695441007614136,-0.735824764,0.5901285409927368,0.7907677292823792,-0.205474675,0.9259952222478215,-0.363143346,0.014647056760852392,0.10220177319797644,1
1709730691133749800,11.594749755859375,-0.530611873,0.620836616,-2.325023174,0.088581614,0.6774364709854126,-0.730228186,0.5549730658531189,0.7098621129989624,-0.29087472,0.9257535281577907,-0.367066507,0.012169484798637107,0.089969701,1
1709730691143768800,11.604768798828125,-0.48729369,0.7094286680221558,-2.198348522,0.078194425,0.6828240752220154,-0.726386189,0.5069343447685242,0.4781561493873596,-0.574807048,0.9257726074614206,-0.369712226,0.010943900982021087,0.078346472,1
1709730691153788000,11.614787841796876,-0.417326599,0.9135794043540955,-2.16551137,0.068995886,0.6878563761711121,-0.722560108,0.4723401665687561,0.20699530839920044,-0.931019604,0.9256502403258042,-0.37230509,0.010433249292497842,0.066720553,1
1709730691163807000,11.624806884765626,-0.238933161,1.0972262620925903,-1.984407663,0.061935756,0.691586971,-0.719632804,0.44956937432289124,0.095796943,-1.099886179,0.9256187459318271,-0.374245218,0.011140765270733264,0.055193162,1
1709730691173825800,11.63482568359375,-0.12246754,1.1750688552856445,-1.790066361,0.057043109089136124,0.6939777731895447,-0.717733204,0.4613589644432068,0.062629223,-1.089258432,0.925691262,-0.375457641,0.012843826517977764,0.044298305,1
1709730691183844900,11.644844970703126,0.080707684,1.1878900527954102,-1.520363569,0.053981754928827286,0.695112407,-0.71687144,0.4179725646972656,0.10807967185974121,-0.946229756,0.9258803040428037,-0.375943313,0.015195101767514145,0.034372286123519676,1
1709730691193864000,11.654864013671874,0.23911677300930023,1.1103030443191528,-1.209362745,0.052801691,0.6946496367454529,-0.717407703,0.3775724470615387,0.22096920013427734,-0.752837658,0.9263016225374432,-0.375461765,0.018016973070305198,0.025866002437333214,1
1709730691203883800,11.66488379,0.38739198446273804,1.037543773651123,-0.95969516,0.052975558,0.6929967999458313,-0.718991697,0.4001952111721039,0.3100244402885437,-0.583986878,0.9268994053395482,-0.374250859,0.020986839,0.018797792,1
1709730691213902800,11.67490283203125,0.5239388942718506,0.9485116600990295,-0.738505542,0.054319303,0.69013381,-0.721640289,0.4314747750759125,0.33859843015670776,-0.464135528,0.9277135484391111,-0.372290265,0.024079430257676778,0.012949137554946503,1
1709730691223921700,11.684921630859375,0.5975156426429749,0.8552736043930054,-0.550918579,0.056414921,0.6863889694213867,-0.725043178,0.4333464503288269,0.2834138870239258,-0.393426061,0.9286841419033444,-0.369788852,0.02710379,0.008211717,1
1709730691233940700,11.694940673828125,0.5606191754341125,0.7522941827774048,-0.407834649,0.059006099,0.6824277639389038,-0.728567481,0.41981467604637146,0.18598037958145142,-0.357904077,0.9296581550618112,-0.367173949,0.029992323898986543,0.004413279,0
1709730691243959800,11.704959716796875,0.6509400010108948,0.7102037668228149,-0.220201105,0.062143214,0.6782256960868835,-0.732221425,0.3934231996536255,0.10136103630065918,-0.300768137,0.930649528,-0.364436223,0.032795358239776855,0.00151089,0
1709730691253978600,11.71497852,0.630149782,0.6511606574058533,-0.073974378,0.066181399,0.673598588,-0.73612839,0.35058191418647766,0.046417832374572754,-0.250779569,0.9316994598164523,-0.361470229,0.035708411,-0.00049467,0
1709730691263997700,11.724997802734375,0.7393327355384827,0.6341704726219177,0.065497495,0.070870087,0.6685584187507629,-0.740274966,0.2946237027645111,0.029653191566467285,-0.231648862,0.9328097948343747,-0.358281844,0.038686262,-0.001819468,0
1709730691274016800,11.735016845703125,0.780482292,0.5812328457832336,0.20492328703403473,0.076341458,0.6627598404884338,-0.744930387,0.23875251412391663,0.058721423,-0.223758519,0.9340553153359274,-0.354667841,0.041779371,-0.002406516,0
1709730691284036900,11.745036865234376,0.765892744,0.4907395541667938,0.29004430770874023,0.082019813,0.6567993760108948,-0.74959141,0.19900129735469818,0.076339543,-0.206356466,0.935302121,-0.351003947,0.044727378673946314,-0.002346712,0
1709730691294056000,11.755055908203126,0.8037711381912231,0.4072670340538025,0.35913896560668945,0.08750385,0.65059787,-0.754364252,0.1660056710243225,0.091635346,-0.16206336,0.936578269,-0.34723597,0.047381859,-0.001799621,0
1709730691304074800,11.76507470703125,0.7706663608551025,0.3246132731437683,0.431648314,0.092816189,0.6442611217498779,-0.759152651,0.15176692605018616,0.1008712649345398,-0.138231933,0.9378569363638317,-0.343434673,0.049762483,-0.00076287,0
1709730691314093800,11.77509375,0.776607335,0.25683316588401794,0.4987293481826782,0.098028049,0.6379417181015015,-0.763819933,0.1264287233352661,0.13865429162979126,-0.109638929,0.9391003748022974,-0.339696463,0.051926312754404576,0.000735969,0
1709730691324113000,11.78511279296875,0.7504782676696777,0.1938004493713379,0.5456779599189758,0.10305453091859818,0.6315258145332336,-0.768475711,0.086917385,0.16116821765899658,-0.04992944,0.9403356076670867,-0.33594799,0.053861768102126256,0.00261686,0
1709730691334131700,11.795131591796874,0.7415900230407715,0.18219199776649475,0.5665616393089294,0.10799849033355713,0.6251921653747559,-0.77296257,0.038653723895549774,0.17352914810180664,-0.004411697,0.941519546,-0.332291732,0.055685903,0.0047244,0
1709730691344150800,11.80515087890625,0.7679499983787537,0.11568231135606766,0.5611501336097717,0.11266854405403137,0.6187443137168884,-0.777471066,-0.019422084,0.1855158805847168,0.030187129974365234,0.9427022648182372,-0.328597817,0.057340461922898094,0.006936413,0
1709730691354171000,11.8151709,0.7734488844871521,0.064103812,0.5403777360916138,0.1167839765548706,0.6120557188987732,-0.78214407,-0.084557422,0.15813159942626953,0.059915066,0.9439216473568338,-0.324779184,0.058706522157223315,0.009168167,0
1709730691364190000,11.82518994140625,0.7714834213256836,0.041479882,0.5019145011901855,0.12037904560565948,0.6053326725959778,-0.786817133,-0.124575213,0.16006338596343994,0.058515131,0.9451351173699649,-0.320952932,0.059838424,0.011322922,0
1709730691374209000,11.83520898,0.7530935406684875,-0.00247346,0.4540385603904724,0.1233886182308197,0.5987698435783386,-0.791359544,-0.149008125,0.16862517595291138,0.045372605323791504,0.9463099266333765,-0.317225568,0.060730206,0.013317694420738322,0
1709730691384227800,11.845227783203125,0.7187938690185547,-0.071193561,0.4623100757598877,0.1258379966020584,0.592281163,-0.795844138,-0.159910873,0.14889925718307495,0.058280051,0.9474636843490026,-0.313553176,0.06133792,0.015319709283954451,0
1709730691394247000,11.855246826171875,0.6501285433769226,-0.135613292,0.42235493659973145,0.12762704491615295,0.5862696170806885,-0.799999535,-0.14242807,0.12234848737716675,0.086254418,0.9485240584232086,-0.310171631,0.061593664,0.017378925633618626,0
1709730691404266000,11.865265869140625,0.6053171157836914,-0.17526947,0.41517266631126404,0.12877430021762848,0.5806974172592163,-0.80387044,-0.104161888,0.13490921258926392,0.14218831062316895,0.9495043362168027,-0.30704746,0.061535780558147866,0.019406313195139965,0
1709730691414285000,11.87528516,0.5626769661903381,-0.176103845,0.39776304364204407,0.12972736358642578,0.5754588842391968,-0.807476223,-0.079724312,0.15604740381240845,0.1886712908744812,0.9504094951057575,-0.304127544,0.061386691,0.021442276396926706,0
1709730691424303900,11.885303955078125,0.4701656997203827,-0.214604199,0.3281530737876892,0.13025492429733276,0.5707830786705017,-0.810703635,-0.061056331,0.11395508050918579,0.23401296138763428,0.9512140127539084,-0.301525862,0.061076586370984065,0.023316605267361783,0
1709730691434323700,11.89532373046875,0.48639100790023804,-0.224712238,0.25667569041252136,0.13003741204738617,0.5666180849075317,-0.81365484,-0.049440503,0.073640645,0.2893018126487732,0.95194932,-0.299191086,0.060475431,0.024897663712814107,0
1709730691444342800,11.90534277,0.4820934534072876,-0.227389023,0.188689187,0.12950418889522552,0.5623010396957397,-0.81672895,-0.027956963,0.089249253,0.29745709896087646,0.9527224763763221,-0.296744516,0.059818209,0.026156996131336638,0
1709730691454361900,11.91536181640625,0.4683997333049774,-0.255007863,0.081423998,0.12828457355499268,0.5582789778709412,-0.819675326,-0.028751493,0.091791213,0.2751501798629761,0.9534715398614518,-0.294430673,0.058931471,0.027010788900393504,0
1709730691464380700,11.925380615234374,0.5676683187484741,-0.266273201,0.026660617,0.1263742744922638,0.5539810657501221,-0.822881818,-0.041153938,0.089405715,0.2507840394973755,0.9542984655348948,-0.291920503,0.057805719763973896,0.027484294017036098,0
1709730691474399700,11.935399658203124,0.5956368446350098,-0.278957576,-0.056816168,0.12406526505947113,0.5491343140602112,-0.826474011,-0.050639987,0.084059596,0.18262940645217896,0.9552338274976314,-0.289072767,0.056567927,0.027664439843763725,0
1709730691484418800,11.945418701171874,0.6264567971229553,-0.283829123,-0.140094817,0.12116481363773346,0.5442073345184326,-0.830155075,-0.084299579,0.10754126310348511,0.12498533725738525,0.9562041357329214,-0.286147298,0.055156137142354754,0.027405042303579194,0
1709730691494438000,11.95543798828125,0.6500158905982971,-0.279887378,-0.190306589,0.11790534853935242,0.5390763282775879,-0.833963454,-0.115799643,0.11598348617553711,0.081384718,0.9572154665488227,-0.283089911,0.053650448,0.026838235905385432,0
1709730691504458000,11.96545801,0.7152588367462158,-0.273059577,-0.234955549,0.11443651467561722,0.5336476564407349,-0.837928653,-0.144053847,0.069837391,0.025688052,0.9582725824128522,-0.279858294,0.052105742,0.026037303845918448,0
1709730691514476800,11.975476806640625,0.8003082275390625,-0.246750742,-0.306613773,0.11080420017242432,0.5275789499282837,-0.842248678,-0.194635987,0.030404388904571533,-0.014455974,0.9594288092076709,-0.276257353,0.050571998,0.024911082412202214,0
1709730691524496000,11.985495849609375,0.9451346397399902,-0.199788287,-0.404932618,0.10702146589756012,0.5206183791160583,-0.847055435,-0.220424801,-0.006885469,-0.062185287,0.960720902,-0.272142939,0.049096849681404126,0.023305259997080007,0
1709730691534515000,11.995514892578125,1.0726337432861328,-0.157990769,-0.56113553,0.10299112647771835,0.5125466585159302,-0.852460444,-0.240350753,-0.059192836,-0.109591007,0.9621792510848961,-0.267387827,0.047681677,0.021007848514697582,0
1709730691544533800,12.00553369140625,1.2713351249694824,-0.060403232,-0.768902838,0.098682642,0.5031952857971191,-0.858519793,-0.277546167,-0.134222567,-0.178986311,0.9638192274965378,-0.261893097,0.04639087,0.017674805,0
1709730691554552800,12.01555273,1.4308643341064453,0.030107226222753525,-1.014572263,0.09416984,0.49230048060417175,-0.865316272,-0.328941584,-0.206594944,-0.275125623,0.9656535191189256,-0.255519255,0.045296541,0.013087687945525749,1
1709730691564572000,12.025572021484376,1.6026432514190674,0.13942253589630127,-1.357630014,0.089070946,0.4802896976470947,-0.872575581,-0.423177391,-0.249103814,-0.374433696,0.9675949369334095,-0.248503789,0.044250046615582406,0.006918818,1
1709730691574591000,12.035591064453126,1.996880292892456,0.3316282033920288,-1.632585406,0.084027685,0.4657566547393799,-0.88091433,-0.525159299,-0.232327759,-0.537817359,0.9697711944668315,-0.240089797,0.043585685,-0.001059182,1
1709730691584610800,12.04561083984375,2.3258936405181885,0.4866071939468384,-1.915487647,0.079518721,0.44810211658477783,-0.890438795,-0.640462339,-0.258175999,-0.739093065,0.9721660006183148,-0.229991842,0.043409097419188414,-0.010615547,1
1709730691594630000,12.05562988,2.8938791751861572,0.7470661997795105,-2.167806864,0.076015748,0.42631468176841736,-0.901375294,-0.765453637,-0.303542465,-0.917335033,0.9747866423223759,-0.21768607,0.043876356017503705,-0.021876516,1
1709730691604648700,12.065648681640624,3.236997365951538,0.9081333875656128,-2.37384367,0.07413689,0.4000835716724396,-0.913475156,-0.885049999,-0.323453963,-1.113105655,0.9775204553782981,-0.203049951,0.045090355,-0.034515148,1
1709730691614667800,12.075667724609374,3.685041666030884,1.1207726001739502,-2.61220932,0.073860273,0.3700545132160187,-0.926069319,-1.006096005,-0.284437478,-1.265962601,0.98014139,-0.18645198,0.046914965,-0.048554936,1
1709730691624686600,12.08568652,3.996126651763916,1.258256435394287,-2.819872379,0.075448148,0.3361942172050476,-0.938765705,-1.049386144,-0.186475039,-1.385788679,0.9824999891016611,-0.167886978,0.049306354537725396,-0.063849012,1
1709730691634705700,12.09570556640625,4.433846950531006,1.3898237943649292,-3.081959724,0.078556053,0.29859262704849243,-0.951142132,-1.103153229,-0.130684912,-1.467162371,0.9844210454206239,-0.147408129,0.051959295,-0.080536925,1
1709730691644724700,12.105724853515625,4.860807418823242,1.4947978258132935,-3.240229368,0.083564617,0.2565435767173767,-0.962913454,-1.156745791,-0.03901428,-1.563972473,0.9857873188981571,-0.124649276,0.054825395,-0.098387019,1
1709730691654744800,12.115744873046875,5.190952301025391,1.6149157285690308,-3.350001097,0.090934984,0.21055668592453003,-0.973343074,-1.161110163,0.028929993510246277,-1.656570196,0.9864042611026018,-0.099860404,0.057934192,-0.116953687,1
1709730691664764000,12.125763916015625,5.393058776855469,1.6875656843185425,-3.535292149,0.100670725,0.1619572937488556,-0.98164922,-1.172921062,0.10072274506092072,-1.661295056,0.9860330296255037,-0.073665468,0.061227256,-0.136247496,1
1709730691674782700,12.13578271484375,5.6913862228393555,1.7667242288589478,-3.650817633,0.1128072664141655,0.1111704409122467,-0.98737818,-1.217482567,0.2614338994026184,-1.693270683,0.9845075076615615,-0.046198939,0.064626404,-0.156314088,1
1709730691684801800,12.14580176,5.870998859405518,1.704080581665039,-3.681413412,0.12695027887821198,0.058284636586904526,-0.990195215,-1.22150898,0.4161874055862427,-1.695214272,0.9818009892309052,-0.017492173,0.067796947,-0.176534296,1
1709730691694820900,12.15582080078125,6.0995612144470215,1.684204339981079,-3.834457397,0.14248649775981903,0.003924884,-0.989788949,-1.248504639,0.4723324179649353,-1.571398735,0.9777841852165675,0.012182539920533426,0.070406697,-0.197059904,1
1709730691704840000,12.16583984,6.2377448081970215,1.531599998474121,-3.91359663,0.1594938188791275,-0.051433966,-0.985858142,-1.276757598,0.6139339804649353,-1.512387037,0.972314525,0.04269345,0.072444459,-0.21802191,1
1709730691714858800,12.175858642578126,6.256968975067139,1.3083676099777222,-3.933357239,0.17643959820270538,-0.106272697,-0.978557706,-1.247026801,0.6968488693237305,-1.471515536,0.9654956618835788,0.073167447,0.073264405,-0.238949669,1
1709730691724877800,12.18587793,6.327656269073486,1.0508496761322021,-3.976834536,0.19324128329753876,-0.160325974,-0.967963517,-1.202976465,0.6836718916893005,-1.212319136,0.9573437330608813,0.10349948837401524,0.072842935,-0.259758923,1
1709730691734898000,12.19589794921875,6.332563877105713,0.7258843779563904,-4.069528103,0.20917674899101257,-0.21333991,-0.954322338,-1.224557638,0.8886786699295044,-1.015755177,0.9478258541136401,0.13351076227437808,0.07080747,-0.280690649,1
1709730691744917000,12.20591699,6.297693252563477,0.5361562371253967,-4.183543205,0.22479991614818573,-0.264157712,-0.937915623,-1.227576971,1.115140438079834,-0.958828151,0.9369026629873534,0.1627353723281794,0.067523264,-0.301945608,1
1709730691754935800,12.215935791015625,6.103229999542236,0.16254112124443054,-4.115407944,0.2390485405921936,-0.31281805,-0.919239163,-1.203495622,1.172971248626709,-0.857967257,0.9248517516655129,0.19096146552698512,0.062563057,-0.3229066,1
1709730691764955000,12.225954833984375,6.034139156341553,0.00209317,-4.21581459,0.2527853548526764,-0.35793367,-0.898878753,-1.294960618,1.194252610206604,-0.851548493,0.9117512273901562,0.2176210219931505,0.056583691342606976,-0.343727955,1
1709730691774974000,12.235973876953125,5.916848659515381,-0.206705838,-4.237766266,0.2672930955886841,-0.400474191,-0.876455843,-1.299687505,1.3628307580947876,-0.930489957,0.8974150745684343,0.24345096030217164,0.050037089,-0.364519064,1
1709730695612307200,16.07330712890625,-4.717820168,-2.554531574,-6.570421219,0.4847988486289978,-0.308656365,-0.818352759,-0.964962482,0.5993363261222839,0.11042129993438721,0.823132677,0.011407007967392288,0.3011536063538539,0.4812783234993299,1
1709730695622327300,16.083327392578123,-4.760087967,-2.261663437,-6.819839478,0.48313087224960327,-0.236672178,-0.842953682,-0.998450756,0.626763105,0.060635567,0.842427328,-0.012459611,0.27994271729030407,0.46020988943363295,1
1709730695632346400,16.093346435546874,-4.685521126,-2.122079849,-6.969355106,0.4782170355319977,-0.16289416,-0.863002837,-0.976370752,0.6091679334640503,0.052410244941711426,0.8603127895139089,-0.037067323,0.2590841188741557,0.43745087740232197,1
1709730695642365200,16.10336523,-4.547936916,-1.954361796,-7.023434162,0.46931973099708557,-0.08941403,-0.878489673,-0.882207334,0.6400426626205444,0.1277419924736023,0.8766376447111784,-0.061511549,0.23868702753754586,0.4132204196476072,1
1709730695652384300,16.11338427734375,-4.106366634,-1.887426257,-7.03419733,0.45588910579681396,-0.018085415,-0.889852822,-0.75749439,0.7653235793113708,0.17580252885818481,0.8913636487459085,-0.08502145,0.2187348888655175,0.38781073180494463,1
1709730695662403300,16.12340332,-3.808921099,-1.575671792,-6.959786892,0.43928566575050354,0.048335473984479904,-0.897046149,-0.623855948,0.9239850640296936,0.056988776,0.9044461169341643,-0.106696387,0.20023189253613563,0.3612481260108224,1
1709730695672422400,16.13342236328125,-4.019939423,-1.318804502,-6.998797894,0.4206427335739136,0.11350926756858826,-0.90009743,-0.482471377,0.9754799604415894,-0.15837425,0.9156648027404275,-0.128658171,0.1827522050785637,0.3340760009016547,1
1709730695682441200,16.143441162109376,-4.315441132,-1.019279599,-7.105078697,0.39971333742141724,0.18005529046058655,-0.898782134,-0.419000477,0.9142287373542786,-0.213629365,0.9250753335011389,-0.152134848,0.16572241003459692,0.30598485,1
1709730695692461300,16.15346142578125,-4.580727577,-0.910214901,-7.121085167,0.37594789266586304,0.24779760837554932,-0.89289391,-0.362382859,0.7282766103744507,-0.199070811,0.9325416622623944,-0.177123571,0.14893049599198996,0.2771514828760443,1
1709730695702480400,16.16348047,-4.455821514,-0.819603264,-7.049512386,0.3481960594654083,0.3139837384223938,-0.883274436,-0.285024703,0.5748101472854614,-0.155452371,0.9381741394909033,-0.202252905,0.13212324466474032,0.24792435336844407,1
1709730697766423800,18.22742383,-0.180547073,-0.282119215,-0.867011309,0.23827791213989258,-0.903364658,-0.356589079,-0.293926746,0.018034577,0.092673093,0.45524548351863225,0.18260204175156564,0.5369934342156035,0.6863279215264386,1
1709730697776442600,18.237442626953126,-0.236140296,-0.462223113,-1.072418451,0.245690718,-0.900290191,-0.359323919,-0.356988341,-0.084863007,0.10080945491790771,0.45975849473669833,0.1808154304297736,0.5363243627232405,0.6843128658284982,1
1709730697786461700,18.247461669921876,-0.291551083,-0.610987306,-1.283648491,0.254352331,-0.896378577,-0.363056928,-0.410968542,-0.112501979,0.11830592155456543,0.4654639121890568,0.17887046561366923,0.53523536,0.6818150822933985,1
1709730697796481500,18.25748145,-0.413906842,-0.790667772,-1.524559379,0.26434561610221863,-0.891468644,-0.367974192,-0.476961583,-0.046092331,0.1645439863204956,0.4724218550615064,0.1766880038304733,0.5336611812161949,0.6788259393098707,1
1709730697806500600,18.26750048828125,-0.566960871,-0.972182453,-1.813561082,0.2759210765361786,-0.885123849,-0.374730855,-0.552181482,0.037925422,0.20635011792182922,0.4808648553498466,0.1740516611520685,0.5313573112450861,0.6753771503459955,1
1709730697816519400,18.27751953,-0.758496702,-1.189098954,-2.103983879,0.2891274094581604,-0.877078533,-0.383586377,-0.620334685,0.1003146767616272,0.2676347494125366,0.49091152780021974,0.17089161948323764,0.5282072225852371,0.671415679,1
1709730697826538500,18.28753857421875,-1.049351096,-1.404203296,-2.374084473,0.3036345839500427,-0.866924584,-0.395281821,-0.677917421,0.11777913570404053,0.325900137,0.5025921584821116,0.16709917642268082,0.5238673019273784,0.6671146704440173,1
1709730697836557600,18.29755762,-1.402716637,-1.61498332,-2.625853539,0.31912004947662354,-0.8541646,-0.410566837,-0.739301324,0.12032371759414673,0.3926377296447754,0.5158929884687419,0.1624770616263582,0.5179940029460244,0.6626747288018784,1
1709730697846576600,18.30757666015625,-1.716039419,-1.721900702,-2.817924738,0.33520156145095825,-0.838638783,-0.429330736,-0.801891625,0.13645988702774048,0.4612215757369995,0.5304601455968149,0.1568720395047655,0.5106131591813391,0.6582381009225559,1
1709730697856595500,18.317595458984375,-2.04074502,-1.886786938,-3.071463346,0.3516944348812103,-0.820266545,-0.45108065,-0.838068366,0.14094531536102295,0.5517581105232239,0.546126789,0.1502859894331317,0.5018703054004493,0.6536710313965229,1
1709730697866614800,18.32761474609375,-2.371448994,-2.002894402,-3.40089345,0.3688547611236572,-0.798280597,-0.476124227,-0.88248086,0.16012752056121826,0.591801107,0.5631457297068855,0.14242626704926092,0.4915817764615382,0.6487904161977515,1
1709730697876633600,18.337633544921875,-2.507148266,-2.129610062,-3.71810317,0.3867996335029602,-0.772815406,-0.503132522,-0.897145152,0.2762181758880615,0.6355329751968384,0.5813920389020165,0.13343225935444933,0.4802390919202464,0.6430781335031951,1
1709730697886652700,18.347652587890625,-2.754534245,-2.225407362,-4.01632452,0.4048474431037903,-0.743873715,-0.531742811,-0.875535369,0.3863755464553833,0.6325576305389404,0.6006483309710203,0.12347609148810174,0.46784852686054595,0.6364691340780444,1
1709730697896671700,18.357671630859375,-3.0487113,-2.274257421,-4.351901054,0.4230356216430664,-0.710601091,-0.562216043,-0.862030983,0.42327815294265747,0.6008970737457275,0.6208167685148881,0.1120496065254816,0.45424316458608777,0.6290425405252553,1
1709730697906690800,18.36769091796875,-3.44196701,-2.377678871,-4.641233921,0.44071894884109497,-0.672411144,-0.594667971,-0.853225112,0.4319937229156494,0.5651116967201233,0.6418072882216272,0.099049654,0.4391527977795771,0.6208198439937525,1
1709730697916709600,18.377709716796875,-3.908635378,-2.391330719,-4.903565884,0.4572221636772156,-0.628287435,-0.629446387,-0.831657648,0.44580763578414917,0.5116028189659119,0.6634263676447782,0.084068956,0.42214833562686194,0.6120363924508604,1
1709730697926728700,18.387728759765626,-4.20407486,-2.329009533,-5.008138657,0.47190409898757935,-0.578801632,-0.665052712,-0.837138534,0.516149104,0.46879416704177856,0.6849533314852226,0.067258745,0.40367053735366626,0.6027978108359023,1
1709730697936748800,18.397748779296876,-4.321388245,-2.204855204,-5.157095432,0.48444417119026184,-0.525292397,-0.699558258,-0.89763695,0.5723505020141602,0.3837318420410156,0.705885142,0.049177119277625796,0.38445087838345887,0.5928788314302706,1
1709730697946768000,18.407767822265626,-4.364582539,-2.040807486,-5.38662529,0.495439738,-0.468236774,-0.731637776,-0.965379953,0.6047419309616089,0.27750563621520996,0.7262438228249729,0.029943236175229048,0.3650815368356782,0.581711947,1
1709730697956787000,18.417786865234376,-4.279695511,-1.870131135,-5.619851589,0.5050153136253357,-0.408255726,-0.760451674,-0.970789909,0.6711951494216919,0.21437013149261475,0.7460255336171049,0.009801492,0.3459451971687959,0.5689216085881427,1
1709730697966805800,18.42780566,-4.218711853,-1.723016024,-5.814579487,0.5127233862876892,-0.346249521,-0.785637319,-0.911191404,0.6968507170677185,0.13272899389266968,0.7651384686276146,-0.010828273,0.3272064811978098,0.5544202145760854,1
1709730697976824800,18.437824951171876,-4.318277359,-1.558609366,-5.992932796,0.5181816816329956,-0.28168425,-0.807552874,-0.811242104,0.638388991,0.060589433,0.7834642557897858,-0.032276021,0.30851550295796476,0.5384793756944974,1
1709730697986844000,18.447843994140626,-4.392649651,-1.370679736,-6.102219582,0.5212517976760864,-0.214469686,-0.826014102,-0.692257047,0.5705945491790771,0.073694766,0.8007823379366532,-0.054756131,0.28981842905198774,0.5213008329756024,1
1709730697996862700,18.45786279296875,-4.489294052,-1.200049639,-6.169798851,0.521600604,-0.145293847,-0.840727329,-0.592660844,0.5073086023330688,0.087110996,0.8168551655486019,-0.078085474,0.2711807494592549,0.5031015210158519,1
1709730698006882600,18.467882568359375,-4.474180222,-1.004333496,-6.245260239,0.5190808176994324,-0.074827097,-0.851443529,-0.544898689,0.47271525859832764,0.05922246,0.8316302788245034,-0.102044616,0.25271554007785607,0.4838520827611545,1
1709730698016901600,18.477901611328125,-4.292454243,-0.769761086,-6.323749542,0.5139780044555664,-0.004649584,-0.857790768,-0.561875403,0.5134081244468689,0.038363278,0.8451191948251545,-0.126068417,0.2349710303632771,0.4633236300934377,1
1709730698026920700,18.487920654296875,-4.027156353,-0.530219316,-6.376551151,0.5064767003059387,0.063607626,-0.859904289,-0.616431534,0.6063295006752014,-0.011082649,0.8573923087476539,-0.149520354,0.2183838494703816,0.4413961338332889,1
1709730698036939800,18.497939697265625,-3.805090904,-0.266996324,-6.508692265,0.49683305621147156,0.12973126769065857,-0.858094811,-0.64232564,0.71304214,-0.012281775,0.8685020673746381,-0.172415571,0.20304055002830249,0.4180329700629016,1
1709730698046958600,18.50795849609375,-3.510574341,-0.008490179,-6.624517441,0.484983355,0.19341585040092468,-0.85286659,-0.592161059,0.7947738170623779,0.02045387,0.8786457208884606,-0.194574979,0.1889636684271818,0.39295675357638327,1
1709730698056977700,18.517977783203126,-3.483376265,0.1685674786567688,-6.675517082,0.47080010175704956,0.2550168037414551,-0.844578981,-0.438863486,0.8085055351257324,0.050786257,0.8876123616687651,-0.216296463,0.1758589129395764,0.36665191509753886,1
1709730698066996700,18.527996826171876,-3.215224266,0.21987807750701904,-6.591900349,0.4535239040851593,0.31400132179260254,-0.834097862,-0.254656106,0.750589132,0.10115718841552734,0.8954054892225812,-0.237258362,0.16327746244776195,0.3395556265234411,1
1709730698077016800,18.538016845703126,-3.353154421,0.11557440459728241,-6.340101242,0.43283331394195557,0.3698004186153412,-0.822133183,-0.134905487,0.6278496980667114,0.11897766590118408,0.9017864569099242,-0.257321477,0.15072846323740433,0.3128062659105737,1
1709730698087035600,18.54803564453125,-3.438280582,0.053591728,-6.195972919,0.4085308015346527,0.42405784130096436,-0.808255851,-0.069846779,0.5390310883522034,0.1726357340812683,0.9065763338734203,-0.277395741,0.13756337733498183,0.28678774444497335,1
1709730698097054700,18.55805469,-3.32635498,0.080501005,-6.061415672,0.3813613951206207,0.4755580425262451,-0.792721927,-0.059538305,0.6206638216972351,0.2461368441581726,0.9100712188507076,-0.296942071,0.1243561605269387,0.26101969711477724,1
1709730698107073800,18.56807373046875,-3.028242588,0.17986300587654114,-5.829931259,0.3525751829147339,0.5225651860237122,-0.776283622,-0.106283098,0.7799249887466431,0.1776813268661499,0.9125080455716064,-0.315199853,0.11183573837403232,0.23552225331081247,1
1709730698117092900,18.57809277,-2.778524399,0.2808404266834259,-5.564399719,0.3234279751777649,0.5639278888702393,-0.759855032,-0.156542629,0.951544464,0.11511021852493286,0.914089015,-0.331622088,0.1004951807709217,0.2106386844029821,1
1709730698127111700,18.588111572265625,-2.648918629,0.36472389101982117,-5.473080158,0.29357093572616577,0.6015257239341736,-0.742955446,-0.201697767,1.0470185279846191,0.14485669136047363,0.9147833245646307,-0.347061,0.089838405,0.18614247245281337,1
1709730698137130800,18.59813086,-2.490901947,0.5372380614280701,-5.312259674,0.2633880078792572,0.6354280710220337,-0.725849748,-0.160879493,1.1089870929718018,0.13312214612960815,0.9147597354444257,-0.361472844,0.080078135,0.16167672215245704,1
1709730698147150800,18.60815087890625,-2.457006454,0.617262065,-5.116930008,0.23362910747528076,0.6661486625671387,-0.708281934,0.014371976256370544,1.0850567817687988,0.069259107,0.91388962,-0.375198442,0.071310311,0.1376466337732982,1
1709730698157170000,18.61816992,-2.540293455,0.5828995704650879,-4.977278709,0.20346848666667938,0.6947196125984192,-0.689902306,0.15433484315872192,0.9281288385391235,0.14295101165771484,0.9120846190805014,-0.388714249,0.062849548,0.1142488028067312,1
1709730698167188700,18.628188720703125,-2.391577244,0.4845152199268341,-4.794486046,0.1723167598247528,0.7208703756332397,-0.671306849,0.2161109745502472,0.7719274759292603,0.23559212684631348,0.90953947,-0.401748508,0.054265118,0.091604847,1
1709730698177207800,18.638207763671875,-2.367733479,0.5121010541915894,-4.50393486,0.1415286809206009,0.743861198,-0.653176963,0.2697872221469879,0.7466325759887695,0.21808785200119019,0.9064667307340597,-0.413869203,0.046084656,0.070046612,1
1709730698187227000,18.648226806640626,-2.232790947,0.6268265843391418,-4.287665367,0.11189278215169907,0.7644173502922058,-0.634937823,0.29382312297821045,0.8653433322906494,0.1433759331703186,0.9027872315879337,-0.425482836,0.038670928,0.049437415446286534,1
1709730698197246000,18.658245849609376,-2.13993454,0.754436731,-4.017414093,0.0841185,0.7820721864700317,-0.61748457,0.24100050330162048,1.0140093564987183,0.071097851,0.8988149929402677,-0.436124634,0.032450314,0.029561326084510637,1
1709730698207264800,18.66826465,-2.290673733,0.7747933864593506,-3.753391027,0.058000643,0.7983022928237915,-0.599457502,0.21398726105690002,0.9960702061653137,-0.052047014,0.8942111348283012,-0.44669718,0.027071623545657536,0.010728909,1
1709730698217284600,18.67828466796875,-2.38361764,0.7841289639472961,-3.525154591,0.033183243,0.8138488531112671,-0.580128431,0.2447555959224701,0.8682800531387329,-0.100077868,0.88882826,-0.457646678,0.022255596344178813,-0.006969965,1
1709730698227303700,18.68830371,-2.411229134,0.861171305,-3.350002289,0.009643208,0.8282892107963562,-0.560217798,0.29087865352630615,0.712604284,-0.118889868,0.882914721,-0.468574573,0.018137315160659667,-0.023885416,1
1709730698237322800,18.69832275390625,-2.277877092,0.8514565229415894,-3.241033554,-0.013169692,0.841292143,-0.540420294,0.29086437821388245,0.5608226656913757,-0.156082451,0.8766934277890867,-0.479145328,0.014478358246126907,-0.040233988,1
1709730698247341800,18.7083418,-2.0014112,0.8687622547149658,-3.117295742,-0.035539057,0.8518624305725098,-0.52255857,0.29640331864356995,0.44759124517440796,-0.134133935,0.8707054207852356,-0.488464786,0.011084885407920285,-0.056137513,1
1709730698257360600,18.718360595703125,-1.635332465,0.8013893365859985,-2.932704687,-0.057262458,0.8599192500114441,-0.50720799,0.33990100026130676,0.41037487983703613,-0.122110307,0.8651732083388921,-0.496321772,0.00779191,-0.07126945,1
1709730698267379700,18.728379638671875,-1.328644633,0.8572723269462585,-2.698724747,-0.077395365,0.8653507828712463,-0.495154381,0.33485692739486694,0.4815577268600464,-0.110863686,0.8603904926077722,-0.502392768,0.004930823,-0.085471208,1
1709730698277398800,18.738398681640625,-1.334140301,0.9083784818649292,-2.552514553,-0.095882215,0.8695265650749207,-0.484489501,0.28094080090522766,0.6229050159454346,-0.095634401,0.855835484,-0.507688947,0.002678995,-0.098946189,1
1709730698287417600,18.74841748046875,-1.363133311,0.9408323168754578,-2.37990284,-0.11302115,0.8734524250030518,-0.473610729,0.2390587329864502,0.7890841364860535,-0.093711078,0.8510523354386672,-0.513023934,0.001036826,-0.111871912,1
1709730698297437700,18.758437744140625,-1.398827672,0.8654268980026245,-2.17279768,-0.128707007,0.8771899342536926,-0.462571472,0.23733434081077576,0.8283611536026001,-0.127272308,0.8461314668099964,-0.518376548,-0.000159293,-0.123884316,1
1709730698307456800,18.768456787109375,-1.322265029,0.7969160079956055,-1.947528124,-0.143097281,0.8806315660476685,-0.451676041,0.23606908321380615,0.734770656,-0.21198976,0.8412306863891322,-0.523603516,-0.001154133,-0.134792344,1
1709730698317475800,18.778475830078126,-1.265583873,0.7217363119125366,-1.702210546,-0.155812085,0.8836626410484314,-0.441432834,0.2516220211982727,0.6803174018859863,-0.300312221,0.8365684682527004,-0.528469588,-0.001866638,-0.144463317,1
1709730698327495000,18.788494873046876,-1.245325208,0.6186876893043518,-1.493424892,-0.167048991,0.8866214752197266,-0.431273848,0.28583866357803345,0.6257076263427734,-0.336533189,0.8320136446345365,-0.53325179,-0.002367168,-0.152938972,1
1709730698337513700,18.79851367,-0.966548979,0.4860458970069885,-1.2705971,-0.176986471,0.8890566825866699,-0.422201365,0.3216702938079834,0.5634426474571228,-0.31286031,0.8279109825986297,-0.537485813,-0.002884374,-0.160200006,1
1709730698347532800,18.80853271484375,-0.532806814,0.43146175146102905,-1.010005474,-0.185277477,0.8900892734527588,-0.416429341,0.3268333077430725,0.5368211269378662,-0.290678263,0.824983954,-0.540160343,-0.003484085,-0.166181078,1
1709730698357552600,18.81855273,-0.333939821,0.32565897703170776,-0.822538614,-0.191776887,0.8901493549346924,-0.413347095,0.29843583703041077,0.6078211665153503,-0.2554304,0.8230707151011114,-0.541581381,-0.004007351,-0.170962509,0
1709730698367571700,18.82857177734375,-0.174807698,0.2332715392112732,-0.69262296,-0.197406948,0.8897061347961426,-0.411647141,0.23117466270923615,0.7166932821273804,-0.166569442,0.8217369504854453,-0.54235986,-0.004712987,-0.174848183,0
1709730698377590800,18.83859082,-0.072488792,0.16975349187850952,-0.580347598,-0.202243045,0.8889415264129639,-0.410951108,0.18318481743335724,0.6938679218292236,-0.137907565,0.8208484382683077,-0.54267305,-0.005514455,-0.177998497,0
1709730698387609600,18.848609619140625,-0.016809816,0.14407023787498474,-0.496425778,-0.206388474,0.8880090117454529,-0.410906017,0.16084100306034088,0.5708227157592773,-0.152250111,0.8202582084534883,-0.542685295,-0.006297448,-0.180636379,0
1709730698397628700,18.858628662109375,0.009728583,0.1252060979604721,-0.409635484,-0.209876955,0.8870800733566284,-0.411145359,0.15627282857894897,0.5045366883277893,-0.148486018,0.8198349069763815,-0.542566773,-0.006972722,-0.182875184,0
1709730698407647700,18.868647705078125,0.085564762,0.1371770054101944,-0.2998496,-0.212513134,0.8861292004585266,-0.411841005,0.16531772911548615,0.47207075357437134,-0.13207379,0.8196422000673885,-0.542239641,-0.007460881,-0.184680915,0
1709730698417666600,18.87866650390625,0.13717815279960632,0.13176493346691132,-0.198090211,-0.214125022,0.8851489424705505,-0.413112313,0.18054044246673584,0.3931407928466797,-0.106525749,0.8197200253737996,-0.541650265,-0.007670488,-0.186051529,0
1709730698427686700,18.888686767578125,0.2337731271982193,0.1056600958108902,-0.110392839,-0.215033323,0.8840612769126892,-0.414965391,0.19222143292427063,0.301882267,-0.064648867,0.8200652139276042,-0.540792749,-0.007778251,-0.187018017,0
1709730698437705700,18.898705810546875,0.3438253402709961,0.071412645,0.014858550392091274,-0.215073377,0.8827351927757263,-0.417758137,0.18576128780841827,0.25306791067123413,-0.031140178,0.8208204266122558,-0.539499646,-0.007814498,-0.187437366,0
1709730698447724800,18.908724853515626,0.355148047,0.038731127977371216,0.070962034,-0.214444399,0.8813531398773193,-0.42098707,0.18276719748973846,0.2294866442680359,0.012814491987228394,0.8218179308390026,-0.53800142,-0.007806109,-0.187373116,0
1709730698457743600,18.91874365234375,0.3267262578010559,0.026512544602155685,0.087983094,-0.213600725,0.8800755143165588,-0.424077421,0.1866537183523178,0.2081812024116516,0.042928129,0.8228145911261632,-0.536563924,-0.00777493,-0.187122231,0
1709730698467762700,18.9287627,0.2795259654521942,0.027098707854747772,0.11056350916624069,-0.212629214,0.8789823055267334,-0.426824152,0.18594159185886383,0.14859026670455933,0.052922785,0.8237277255653539,-0.535283787,-0.007693526,-0.186774262,0
1709730698477781800,18.93878173828125,0.28694021701812744,0.045164261013269424,0.1415962427854538,-0.21138756,0.8780532479286194,-0.429345667,0.17322534322738647,0.069593787,0.054269403,0.8245889484524143,-0.534107945,-0.007474658,-0.186348586,0
1709730698487800800,18.94880078,0.2873244881629944,0.067906857,0.16798844933509827,-0.209780633,0.877139151,-0.431994319,0.15942664444446564,0.017422616481781006,0.054522336,0.8255046085702268,-0.532871936,-0.007095465,-0.185847613,0
1709730698497819600,18.958819580078124,0.2824796736240387,0.10818114876747131,0.19522298872470856,-0.207807899,0.8762680888175964,-0.434706956,0.13828884065151215,0.014814615249633789,0.064147234,0.8264423168519504,-0.531605216,-0.006512699,-0.18532846,0
1709730698507839700,18.96883984,0.24480819702148438,0.1451554000377655,0.19532792270183563,-0.205522165,0.8755161762237549,-0.43730092,0.10556188225746155,0.038302124,0.068526477,0.827335659,-0.530393213,-0.005708394,-0.184840837,0
1709730698517858800,18.97885888671875,0.24542100727558136,0.18412688374519348,0.1912764608860016,-0.203145564,0.8748454451560974,-0.439746857,0.088811472,0.020494520664215088,0.059024810791015625,0.828153895,-0.52924852,-0.004751154,-0.184484405,0
1709730698527878000,18.98887793,0.19730141758918762,0.1731290966272354,0.2221323698759079,-0.20051071,0.8742736577987671,-0.442086965,0.075754896,-0.019827366,0.043359577655792236,0.8289469122422275,-0.528150731,-0.003650848,-0.184093271,0
1709730698537897000,18.99889697265625,0.17238114774227142,0.17821626365184784,0.22423413395881653,-0.197801843,0.873916507,-0.444009215,0.074083611,-0.02734375,0.041085630655288696,0.8296304717941422,-0.527246692,-0.002514133,-0.183623953,0
1709730698547915800,19.008915771484375,0.16551871597766876,0.18371649086475372,0.23452086746692657,-0.194994509,0.8736052513122559,-0.4458597,0.075045183,0.013845801,0.037183552980422974,0.8302946964188925,-0.526372869,-0.001321306,-0.183140484,0
1709730698557934800,19.018934814453125,0.11167865246534348,0.1775657683610916,0.21282675862312317,-0.192230359,0.8734451532363892,-0.447371364,0.060028195,0.034941017627716064,0.033964932,0.830850598,-0.525656077,-0.000104422,-0.182682978,0
1709730698567954700,19.02895458984375,0.16361722350120544,0.20767413079738617,0.2228812575340271,-0.189497784,0.8732264041900635,-0.448961169,0.031203150749206543,0.019077003002166748,0.02769652,0.8314136790107359,-0.524898216,0.001128053,-0.182295862,0
1709730698577973800,19.038973876953126,0.13317355513572693,0.2145649641752243,0.19905342161655426,-0.186668992,0.8729683756828308,-0.450644881,0.003883988,-0.020124257,0.005729139,0.8319937277436428,-0.524091225,0.002437739,-0.181958164,0
1709730698587992600,19.04899267578125,0.17956103384494781,0.22852204740047455,0.1840773969888687,-0.184030652,0.8726194500923157,-0.452402353,-0.027624011,-0.027114749,-0.003850758,0.8325646682049643,-0.523244736,0.003711716,-0.181761155,0
1709730698598011600,19.05901172,0.17316730320453644,0.2147308588027954,0.1720351129770279,-0.181443408,0.8721240758895874,-0.454398334,-0.052305967,-0.00702709,-0.020790905,0.833198263,-0.522279921,0.004952057,-0.181603289,0
1709730698608030700,19.06903076171875,0.16772247850894928,0.18739672005176544,0.14490602910518646,-0.179172099,0.8716409802436829,-0.456222773,-0.064297125,-0.005735338,-0.028198034,0.8337709171325602,-0.521394359,0.006044765,-0.181486421,0
1709730698618049800,19.0790498,0.15708474814891815,0.14696790277957916,0.1447736620903015,-0.177131653,0.8711536526679993,-0.457947075,-0.067771897,0.008668065,-0.016189247,0.8343243923105942,-0.520555275,0.006975902,-0.181317899,0
1709730698628068600,19.089068603515624,0.1449974626302719,0.10433655232191086,0.1306791603565216,-0.175359473,0.8707066178321838,-0.459476978,-0.065363184,0.031347215,-0.002757549,0.834836388,-0.519809538,0.007717384,-0.181071103,0
1709730698638087700,19.099087646484374,0.1701081395149231,0.094711632,0.1179250180721283,-0.173839048,0.8702031970024109,-0.461005688,-0.069614917,0.046346426010131836,0.006064892,0.835348069,-0.519064698,0.008306043,-0.180821319,0
1709730698648107800,19.109107666015625,0.2076970636844635,0.0830286,0.1048068180680275,-0.172450811,0.8695339560508728,-0.462786585,-0.07754916,0.027057170867919922,-0.000836492,0.8359304346866663,-0.518198078,0.008801204,-0.180592338,0
1709730698658126800,19.11912695,0.2847526967525482,0.10862040519714355,0.072146878,-0.171244502,0.8685431480407715,-0.465089113,-0.089619726,-0.014661431,-0.015333861,0.8366441236822786,-0.517079105,0.009200132,-0.180474302,0
1709730698668145700,19.129145751953125,0.3643535077571869,0.12391174584627151,0.027360759675502777,-0.170258984,0.8671252131462097,-0.468087256,-0.108946323,-0.031859159,-0.051138818,0.8375176996392931,-0.515621567,0.009527423,-0.180575993,0
1709730698678164700,19.139164794921875,0.496940017,0.18870118260383606,-0.010838556,-0.169501409,0.8651059865951538,-0.472081482,-0.150933161,-0.026559234,-0.106302917,0.8386243066694666,-0.513676395,0.009788782,-0.180969602,0
1709730698688183800,19.149183837890625,0.5989777445793152,0.25323039293289185,-0.054798823,-0.168728873,0.8624798059463501,-0.477136403,-0.198458582,-0.027335823,-0.187750071,0.8399747762057922,-0.511203512,0.010137376645623563,-0.181688068,0
1709730698698203000,19.159202880859375,0.7103886604309082,0.3877348303794861,-0.105340295,-0.167905405,0.8591538071632385,-0.483386427,-0.236147299,-0.020073056,-0.283321947,0.8415757586673356,-0.508127094,0.010659981835336075,-0.182875274,0
1709730698708221700,19.16922168,0.856611431,0.5626024603843689,-0.180059806,-0.166781023,0.8551616072654724,-0.490797877,-0.274930388,0.017641007900238037,-0.384446293,0.8433769513167362,-0.504446798,0.011597229379131886,-0.184700049,0
1709730698718241800,19.17924169921875,1.0350538492202759,0.8024155497550964,-0.235233322,-0.165229544,0.8500525951385498,-0.500109673,-0.329124659,0.071120381,-0.528668404,0.8455395673165547,-0.499774606,0.013058313143447506,-0.187396667,0
1709730698728260900,19.18926074,1.261265754699707,1.0600998401641846,-0.274618,-0.162720427,0.8438668847084045,-0.511283338,-0.404677629,0.073949158,-0.698555529,0.8480651079716582,-0.494090558,0.015259914544017856,-0.190858969,0
1709730698738280000,19.199280029296876,1.585122824,1.314056634902954,-0.365519941,-0.159247503,0.8360742926597595,-0.524995267,-0.442757487,0.033081532,-0.881437838,0.8511103130858765,-0.48700408,0.018149002784437894,-0.195215117,0
1709730698748298800,19.20929883,1.5472537279129028,1.527443289756775,-0.268151313,-0.154032305,0.8268543481826782,-0.540912032,-0.47563687,0.003330529,-1.039242268,0.8546187345540772,-0.478602036,0.022001826,-0.200206685,0
1709730698758317800,19.21931787109375,1.8386131525039673,1.865088939666748,-0.656923056,-0.148796096,0.8170894384384155,-0.556977987,-0.577537537,0.032977641,-1.142225504,0.8578278508250583,-0.469910701,0.026361447367070766,-0.206446957,0
1709730698768337000,19.22933691,2.2395222187042236,2.1371800899505615,-0.565834939,-0.142514408,0.8045948147773743,-0.576469243,-0.669421017,0.15149033069610596,-1.315559626,0.8616189828654552,-0.459107851,0.031390669,-0.21411962,1
1709730698778355700,19.239355712890625,2.6144022941589355,2.335963487625122,-0.638570666,-0.13401036,0.7894903421401978,-0.598954201,-0.710792482,0.2013847827911377,-1.472212791,0.8661070065897851,-0.446259889,0.037081329,-0.222116265,1
1709730698788375800,19.249375732421875,3.1489334106445312,2.5365772247314453,-0.744253933,-0.124594301,0.7709563970565796,-0.624581754,-0.835931242,0.21116024255752563,-1.507040501,0.8711293793556415,-0.431127102,0.042878101,-0.231137227,1
1709730698798394600,19.25939453,3.634483814239502,2.603757858276367,-0.674978733,-0.113548927,0.7483609318733215,-0.653500199,-0.931769669,0.2365328073501587,-1.538516402,0.8768834442813054,-0.41338393,0.048617244,-0.240469236,1
1709730698808413700,19.26941357421875,3.9488189220428467,2.719679355621338,-0.802131653,-0.100912228,0.7220969796180725,-0.684392154,-0.954049945,0.23990857601165771,-1.491816282,0.8830283640635379,-0.393525636,0.05423544,-0.249913945,1
1709730698818432800,19.279432861328125,4.584128379821777,2.948690653,-1.039054632,-0.087571703,0.6912053823471069,-0.717332721,-1.068983436,0.3058190941810608,-1.312223554,0.889189262,-0.371185984,0.059620409668665865,-0.260784846,1
1709730698828451600,19.28945166015625,4.983572006225586,3.1127307415008545,-1.153472304,-0.072733313,0.6551247835159302,-0.752011478,-1.176534295,0.31876736879348755,-1.321459532,0.8953762401336953,-0.346122092,0.064759158,-0.272593026,1
1709730698838470700,19.2994707,5.513388633728027,3.394829034805298,-1.453924537,-0.055937607,0.6137455701828003,-0.787519693,-1.163193822,0.27938181161880493,-1.353898764,0.9012178017660435,-0.318370856,0.069858027,-0.285598064,1
1709730698848490800,19.30949072265625,5.974769115447998,3.623751640319824,-1.791609406,-0.03716293,0.5667232275009155,-0.823069692,-1.214362979,0.391391397,-1.298786998,0.9062476186452203,-0.287841968,0.074914385,-0.300416403,1
1709730698858509800,19.31950977,6.399439334869385,3.771864175796509,-1.987442851,-0.016365927,0.5140084028244019,-0.857629001,-1.342169881,0.4841299057006836,-1.294363737,0.9103043277457592,-0.254670684,0.079550933,-0.316481353,1
1709730698868529400,19.3295293,6.769338607788086,3.897160053253174,-2.11378932,0.007262942,0.4560859799385071,-0.889906049,-1.391479254,0.41108620166778564,-1.129411459,0.9132353725912399,-0.219108547,0.083895207,-0.33309791,1
1709730698878548500,19.339548583984374,6.959488868713379,3.902381420135498,-2.425337076,0.032813754,0.3943306505680084,-0.918382585,-1.413947821,0.4294303357601166,-0.985273421,0.914582382,-0.182003421,0.087655281,-0.35032912,1
1709730698888567600,19.349567626953124,7.1222028732299805,3.936349868774414,-2.714053392,0.05936905,0.32937902212142944,-0.942329466,-1.49973774,0.6129426956176758,-0.848396242,0.9139526045843215,-0.143721348,0.090440323,-0.368585771,1
1709730698898586400,19.35958642578125,7.014468669891357,3.821726083755493,-2.946085453,0.087899879,0.2640993297100067,-0.960481703,-1.529641867,0.7847135066986084,-0.721784472,0.9112189849956985,-0.105391358,0.093015037,-0.387196159,1
1709730698908605400,19.36960547,7.029633522033691,3.681711196899414,-3.092285872,0.1170780286192894,0.19916985929012299,-0.972946107,-1.546200991,0.9025909900665283,-0.567550719,0.9064687868811949,-0.067419279,0.094771276,-0.40594008,1
1709730698918625300,19.379625244140627,6.959677696228027,3.544205665588379,-3.175301075,0.14719054102897644,0.1347702592611313,-0.979883611,-1.565739155,0.964060903,-0.507451534,0.8999538765695659,-0.029716416,0.095786849,-0.424293358,1
1709730698928644400,19.389644287109373,6.9196953773498535,3.3471405506134033,-3.40762949,0.17760343849658966,0.07187216,-0.981474102,-1.586996794,1.0920681953430176,-0.447770894,0.8915447415269434,0.007331953,0.09596454,-0.442588944,1
1709730698938663400,19.399663330078123,6.777484417,3.1616790294647217,-3.583177567,0.20807328820228577,0.011291158385574818,-0.978048086,-1.625340104,1.2929538488388062,-0.415766001,0.8811913130238356,0.04346367,0.09532511,-0.461005372,1
1709730698948682200,19.40968212890625,6.508268356323242,2.937021017074585,-3.716748238,0.2384141981601715,-0.045447174,-0.970099568,-1.622554183,1.3928898572921753,-0.416848004,0.869123525,0.078045603,0.094122718,-0.479243311,1
1709730698958701300,19.419701416015624,6.3156232833862305,2.797438383102417,-3.842549562,0.26875367760658264,-0.097749524,-0.958236158,-1.624237657,1.3952195644378662,-0.402527392,0.8555082268480153,0.11094379957982038,0.092592688,-0.497216055,1
1709730698968720400,19.429720458984374,6.070931434631348,2.698706865310669,-3.998029709,0.2996410131454468,-0.145697162,-0.942861378,-1.621158957,1.4043641090393066,-0.399179637,0.8403887182061478,0.14244122477455667,0.090993426,-0.514953909,1
1709730698978739200,19.43973926,5.861296177,2.6666247844696045,-4.220937252,0.3315693140029907,-0.18852742,-0.924402058,-1.603191018,1.4588979482650757,-0.411321819,0.8236905750070116,0.1724715092560445,0.089735976,-0.532667609,1
1709730698988758300,19.44975830078125,5.6337738037109375,2.641472339630127,-4.447443485,0.3648460805416107,-0.226014793,-0.903219044,-1.607064128,1.5077073574066162,-0.407755077,0.8053764099241142,0.2011596806869208,0.089023952,-0.550434626,1
1709730698998778400,19.45977832,5.489490032196045,2.6213409900665283,-4.636350155,0.3993460536003113,-0.258337617,-0.879650116,-1.63527751,1.4986482858657837,-0.361850679,0.7854804780150599,0.2286731771137753,0.088789109,-0.56819479,1
1709730699008797400,19.46979736328125,5.390207290649414,2.6191794872283936,-4.754934788,0.4348728358745575,-0.285968333,-0.853878081,-1.637204409,1.4895052909851074,-0.304965913,0.7641546983944072,0.25525680599980155,0.088909654,-0.585667784,1
1709730699018816500,19.47981641,5.229869842529297,2.5282866954803467,-4.874557495,0.47080349922180176,-0.308963597,-0.826368868,-1.626717806,1.4781988859176636,-0.220887601,0.7415586673455957,0.280818858,0.08919827,-0.602723066,1
1709730699028835300,19.48983544921875,5.024802207946777,2.392549753189087,-4.991771698,0.5061587691307068,-0.326736897,-0.798151731,-1.651208878,1.4765934944152832,-0.10367316,0.7179091222452857,0.30480898158349007,0.08952992,-0.619420853,1
1709730699038854400,19.49985449,4.801975727081299,2.2340729236602783,-5.077097893,0.5409060716629028,-0.339150012,-0.769673884,-1.651791811,1.487160325050354,0.011174738,0.6932910791507246,0.3271865237263326,0.090066917,-0.63575491,1
1709730699048873500,19.50987353515625,4.529656410217285,2.041769504547119,-5.149074078,0.5745909810066223,-0.345985442,-0.741713703,-1.632635474,1.4614028930664062,0.13551253080368042,0.6679599043347787,0.3476769522855617,0.090905949,-0.65167956,1
1709730699058892500,19.51989258,4.242218017578125,1.8343693017959595,-5.19555521,0.6066901683807373,-0.347411305,-0.715005159,-1.627045393,1.4269859790802002,0.29628872871398926,0.6421350161682587,0.36610555085894775,0.092000747,-0.667207004,1
1709730699068912400,19.529912353515623,3.944040536880493,1.5768318176269531,-5.195066929,0.6367241740226746,-0.343847007,-0.690182269,-1.607885122,1.3950250148773193,0.44529402256011963,0.6161034115512017,0.3823672042624769,0.09329617,-0.682281312,1
1709730699078931500,19.539931396484373,3.6202564239501953,1.2935816049575806,-5.176019669,0.664121687,-0.335785925,-0.667974651,-1.561948776,1.3491830825805664,0.5828001499176025,0.5901491532899449,0.3962950251068285,0.09467267,-0.696929889,1
1709730699088950300,19.5499502,3.2925212383270264,1.0368635654449463,-5.198353291,0.6889315247535706,-0.323525667,-0.648617327,-1.509793401,1.3080532550811768,0.6952482461929321,0.5643222050951567,0.40795517923560404,0.096249134,-0.711230696,1
1709730699098969300,19.55996923828125,2.873779297,0.7599359750747681,-5.251220703,0.7111972570419312,-0.30663994,-0.632590175,-1.474426746,1.2764427661895752,0.8168095350265503,0.5387156185613785,0.41714887472619505,0.098446518,-0.725314094,1
1709730699108988200,19.56998828,2.493279457092285,0.5050448179244995,-5.267867088,0.730766773,-0.28548938,-0.6200611,-1.44956255,1.2638829946517944,0.9310352206230164,0.5134457778015614,0.4239098553226652,0.10134051276374782,-0.739191411,1
1709730699119007200,19.58000732421875,2.069765567779541,0.26877227425575256,-5.286864758,0.747572124,-0.260469735,-0.610975742,-1.419157267,1.258531928062439,0.9772935509681702,0.48867978873400353,0.428339643,0.10505847753370243,-0.752781375,1
1709730699129027300,19.59002734,1.5830204486846924,0.023047455,-5.319824219,0.7615513205528259,-0.231546596,-0.605331123,-1.399109364,1.2360479831695557,1.0365750789642334,0.4644825728902449,0.43042829293987045,0.10984501046416127,-0.766108,1
1709730699139046400,19.60004638671875,1.1367530822753906,-0.200360119,-5.303730011,0.7725061178207397,-0.198878348,-0.603060246,-1.360625744,1.2702285051345825,1.0856499671936035,0.44101872213930826,0.43016870365420173,0.11586525304962214,-0.779122946,1
1709730699149065500,19.61006543,0.6891095042228699,-0.430466294,-5.239978313,0.7801908254623413,-0.163381651,-0.603828371,-1.301919341,1.2933865785598755,1.1219711303710938,0.418499614,0.4277540225407721,0.12293211701506264,-0.791689493,1
1709730699159084300,19.620084228515626,0.2708142399787903,-0.676012516,-5.219995022,0.784373939,-0.125355169,-0.607489586,-1.256191015,1.2485089302062988,1.1543035507202148,0.3969446555584423,0.42319432267350177,0.13100297599114538,-0.803853032,1
1709730699169103400,19.630103271484376,-0.229176402,-0.89077276,-5.260708332,0.785068929,-0.084287144,-0.613646984,-1.193729639,1.223111629486084,1.1540675163269043,0.37618528430918396,0.4164852438507433,0.1404156667574947,-0.815664302,1
1709730699179122400,19.640122314453127,-0.677808523,-1.051983118,-5.287328243,0.7823243737220764,-0.040017508,-0.621584356,-1.117697477,1.2294400930404663,1.127962589263916,0.35612414012409477,0.4077813388977928,0.15140082514679096,-0.827023399,1
1709730699189141200,19.650141357421877,-1.020895839,-1.170106053,-5.302667141,0.7762359380722046,0.006653288,-0.630407333,-1.042303562,1.1659541130065918,1.109395980834961,0.33663720916375234,0.39749390122783024,0.16369157124444447,-0.83778218,1
1709730699199161300,19.660161376953123,-1.358268619,-1.235781193,-5.40242815,0.7669082880020142,0.055630635,-0.639340997,-1.000306726,1.0508757829666138,1.0913368463516235,0.3173935900668097,0.3858889348952109,0.17725470591927128,-0.847898456,1
1709730699209180400,19.670180419921873,-1.504851937,-1.335761547,-5.407269478,0.7542586922645569,0.1061100885272026,-0.647946358,-0.988694727,1.0362086296081543,1.1025972366333008,0.29823456649495117,0.3731974228123499,0.19170423505492298,-0.857338463,1
1709730699219199500,19.680199462890624,-1.689179897,-1.455154181,-5.442588806,0.7379948496818542,0.15706615149974823,-0.65627259,-0.923160315,0.9756852984428406,1.1165845394134521,0.2791477091362327,0.35946278185153374,0.2065192632467239,-0.866148213,1
1709730699229218600,19.690218505859374,-1.92823112,-1.570111036,-5.547423363,0.7179057598114014,0.20911230146884918,-0.663990498,-0.813502073,0.885156512,1.1202588081359863,0.26000096418638236,0.34452915512823834,0.22204597430342726,-0.874296705,1
1709730699239237400,19.7002373,-1.988859057,-1.633870125,-5.619475842,0.6939530372619629,0.2617746591567993,-0.670748234,-0.69731003,0.8294423818588257,1.131136417388916,0.2406227253304077,0.32853597922155425,0.23809660446737785,-0.881745283,1
1709730699249256400,19.71025634765625,-2.122878075,-1.64258182,-5.736262798,0.6664966344833374,0.31421372294425964,-0.676056147,-0.616539419,0.8102521896362305,1.106933832168579,0.2207702356633851,0.3118984804976932,0.25434478854164533,-0.888419066,1
1709730699259275500,19.720275634765624,-2.26287961,-1.596418619,-5.906229973,0.6356027126312256,0.36718109250068665,-0.679107726,-0.583829641,0.7527835369110107,1.052947998046875,0.20023906325364912,0.29467065338491416,0.2713214688833683,-0.894124286,1
1709730699269295400,19.73029541015625,-2.206339359,-1.517952919,-6.004159451,0.6015167236328125,0.41934922337532043,-0.679944038,-0.579391539,0.7266926169395447,1.0058717727661133,0.17888784243485786,0.27719385639633976,0.28842946598717634,-0.898872188,1
1709730699279314200,19.740314208984376,-2.15846324,-1.437954187,-6.129777908,0.5644131898880005,0.4696718752384186,-0.678856492,-0.600881696,0.7036985158920288,0.948494554,0.1566619249501385,0.2596539239235656,0.3052074482938377,-0.902710002,1
1709730699289333200,19.750333251953126,-2.234649181,-1.301576614,-6.317192554,0.5243101716041565,0.5184469223022461,-0.67550838,-0.626116872,0.6309060454368591,0.9187334775924683,0.13339192941421507,0.24208478742669046,0.3219328686636523,-0.905516821,1
1709730699299352300,19.760352294921876,-2.339889765,-1.206651568,-6.526389122,0.4809706509113312,0.5661914348602295,-0.669398487,-0.589781106,0.6018535494804382,0.9123184680938721,0.10897449234264545,0.22438401674492076,0.3390465488932383,-0.907096278,1
1709730699309371400,19.770371337890627,-2.470566034,-1.138841152,-6.720516205,0.43403303623199463,0.6126199960708618,-0.66053915,-0.513607621,0.6029561161994934,0.9216780662536621,0.083507718,0.20635722850451824,0.35657693621410946,-0.907356592,1
1709730699319390200,19.78039013671875,-2.364959717,-1.075186372,-6.806968689,0.3836597502231598,0.6564075946807861,-0.649564683,-0.454704612,0.6249339580535889,0.9159221053123474,0.057167134,0.18805830990751124,0.37396753783285397,-0.906374283,1
1709730699329409300,19.79040918,-2.101150036,-1.050487757,-6.790500641,0.3307734429836273,0.6951555609703064,-0.638237894,-0.476555914,0.6669202446937561,0.9483423233032227,0.030334574,0.169762703,0.3899508528788557,-0.904543382,1
1709730699339429400,19.800429443359373,-1.806253552,-1.126348257,-6.735770702,0.275685579,0.7280368208885193,-0.627662122,-0.576680541,0.6775417327880859,0.989600658,0.003455096,0.15125120311165388,0.40409405104390045,-0.902119177,1
1709730699349448400,19.810448486328124,-1.531045914,-1.326071024,-6.708675385,0.21811185777187347,0.7550255060195923,-0.618355572,-0.682513118,0.7379706501960754,1.0212639570236206,-0.023203895,0.13201998477715307,0.4164047765237556,-0.899243703,1
1709730699359467300,19.82046728515625,-1.59441936,-1.61424315,-6.79513073,0.1572851687669754,0.7772607803344727,-0.609202027,-0.778180599,0.8053197860717773,1.0326486825942993,-0.049472078,0.11143539493060645,0.42776296162028055,-0.895630242,1
1709730699369486300,19.83048633,-1.726220846,-1.830114007,-6.932611942,0.0927414,0.795944095,-0.598224163,-0.874418676,0.849166989,1.0605502128601074,-0.075579407,0.089326957,0.43921361620359106,-0.890730026,1
1709730699379505400,19.84050537109375,-1.802457094,-2.023302794,-7.063987732,0.024951139464974403,0.8105385303497314,-0.58515358,-0.958590686,0.8916708827018738,1.078622817993164,-0.101712679,0.065930386,0.4506399732008869,-0.884438455,1
1709730699389524500,19.85052441,-1.926188111,-2.079385996,-7.184399128,-0.045239821,0.820621908,-0.569678009,-1.018618226,0.858729899,1.0330417156219482,-0.127947015,0.041624994,0.4619830616952236,-0.876623381,1
1709730699399543300,19.860543212890626,-1.727862835,-2.129343987,-7.16115284,-0.11623843,0.8251275420188904,-0.552859008,-1.065707326,0.8121404647827148,0.9804103374481201,-0.154134718,0.016959825040496788,0.4725281468505491,-0.867566696,1
1709730699409563400,19.87056348,-1.570070267,-2.219192266,-7.061863899,-0.186959207,0.8232877850532532,-0.535950899,-1.185675621,0.789199948,0.9606029987335205,-0.179654022,-0.008107976,0.4816210365267899,-0.857729422,1
1709730699419582500,19.88058251953125,-1.331187129,-2.196884394,-6.904250622,-0.256043494,0.8154850006103516,-0.519062579,-1.271178246,0.7993373870849609,0.8856549859046936,-0.20427448,-0.033142567,0.48925482895536526,-0.84723266,1
1709730699429601500,19.89060156,-1.396147966,-2.22307992,-6.759404659,-0.322657347,0.8025661110877991,-0.501776636,-1.296925783,0.8334964513778687,0.8449163436889648,-0.227901349,-0.057828792,0.4957494460711112,-0.836031834,1
1709730699439620600,19.90062060546875,-1.223964214,-2.281402111,-6.527253628,-0.386782199,0.7855072617530823,-0.48309201,-1.34773016,0.7655181288719177,0.8259112238883972,-0.250458776,-0.082215993,0.501691664,-0.823903156,1
1709730699449639400,19.910639404296877,-0.901530564,-2.433814287,-6.137589931,-0.447147012,0.7640185952186584,-0.465118408,-1.392513633,0.774326742,0.8537445068359375,-0.270979273,-0.106469949,0.506068118,-0.811867869,1
1709730699459658500,19.920658447265627,-0.558177471,-2.718743801,-5.733412743,-0.503620327,0.7391257286071777,-0.447280347,-1.450999975,0.7162728309631348,0.905242383,-0.288874633,-0.130895108,0.5091427102772658,-0.800119742,1
1709730699469677600,19.930677490234373,-0.043358602,-3.080548286,-5.305417538,-0.556452453,0.7112242579460144,-0.429558724,-1.498372316,0.6217987537384033,1.0356836318969727,-0.303630333,-0.156072875,0.5107464168862467,-0.789042399,1
1709730699479697400,19.940697509765624,0.6824970841407776,-3.476392746,-4.957120895,-0.606040239,0.6800423264503479,-0.41262278,-1.556084394,0.4866446852684021,1.1479437351226807,-0.315120958,-0.1825509,0.5102585427062782,-0.779108527,1
1709730699489716200,19.95071630859375,1.0607645511627197,-3.785837412,-4.730895042,-0.652943134,0.6459179520606995,-0.395544171,-1.684993267,0.25889772176742554,1.2477017641067505,-0.323722822,-0.210455477,0.5078743992682769,-0.770049086,1
1709730699499735300,19.96073535,1.2753173112869263,-4.081505299,-4.675604343,-0.697761595,0.6094493269920349,-0.376430929,-1.868797302,-0.020139635,1.3692593574523926,-0.330530414,-0.239375285,0.5044640795171471,-0.76089754,1
1709730699509754400,19.97075439453125,1.4530696868896484,-4.466888428,-4.606472015,-0.740769267,0.571065366,-0.353758901,-2.104170799,-0.375874937,1.4801626205444336,-0.335587758,-0.269474156,0.5005039739520517,-0.751172684,1
1709730699519773400,19.98077344,1.799198865890503,-4.80182457,-4.612197399,-0.782025516,0.530452549,-0.327194512,-2.356875181,-0.713573277,1.4346773624420166,-0.338962826,-0.300993496,0.4957879237690839,-0.740743881,1
1709730699529792300,19.990792236328126,2.467219829559326,-5.245474815,-4.5407691,-0.821091294,0.48704999685287476,-0.297643095,-2.531417131,-0.901127815,1.2025960683822632,-0.34006148,-0.33439626,0.4892418555063719,-0.730191598,1
1709730699539811300,20.000811279296876,3.171797037124634,-5.685297012,-4.371955872,-0.857266724,0.44151848554611206,-0.264868468,-2.776262999,-0.916539848,0.9062411189079285,-0.33798097,-0.369911936,0.4803445936587235,-0.719863279,1
1709730699549831400,20.01083154296875,3.8402607440948486,-6.155246258,-4.090585709,-0.889699221,0.3956747353076935,-0.227765173,-2.931727171,-0.930937767,0.5023622512817383,-0.33228163,-0.407095008,0.469458273,-0.709557348,1
1709730699559850500,20.02085059,4.377820014953613,-6.695208073,-3.716104507,-0.917618513,0.3518809676170349,-0.184813157,-2.967207909,-1.042890549,0.16647209227085114,-0.322386563,-0.445547014,0.4572540660444593,-0.698908728,1
1709730699569869300,20.030869384765627,4.892751693725586,-7.180583477,-3.332814932,-0.940475106,0.3116134703159332,-0.135659501,-3.110260248,-1.031126499,-0.072378859,-0.308106331,-0.484945916,0.443844239,-0.687677373,1
1709730699579888400,20.040888427734377,5.148155212402344,-7.834461212,-3.010538101,-0.957869112,0.2761102318763733,-0.079056293,-3.306855679,-0.810305178,-0.247832775,-0.28977588,-0.524999563,0.4299387296408269,-0.674950417,1
1709730699589907500,20.050907470703127,5.328181743621826,-8.312255859,-2.766154528,-0.969242036,0.2456776350736618,-0.014572017,-3.515193939,-0.674251258,-0.304962337,-0.267941185,-0.565553164,0.4157686980648472,-0.659919337,1
1709730699599926500,20.060926513671873,5.257821083068848,-8.7816782,-2.637991428,-0.97375387,0.2205386906862259,0.05626747,-3.734971046,-0.837451577,-0.36888957,-0.243734729,-0.605702586,0.40156956044021674,-0.64223021,1
1709730699609945300,20.07094531,5.4900431632995605,-9.33479023,-2.417510748,-0.970485747,0.2009420096874237,0.13334143161773682,-4.10615921,-1.131194115,-0.315882325,-0.217049769,-0.645592655,0.3871444691527666,-0.621465017,1
1709730699619965400,20.08096533203125,5.953663349151611,-9.83940506,-2.232627153,-0.95826304,0.18844136595726013,0.21499288082122803,-4.433689594,-1.387797475,-0.44370687,-0.186897721,-0.685085511,0.3716911150956634,-0.597973948,1
1709730699629984300,20.09098438,6.700385570526123,-10.19531059,-2.001706362,-0.936402261,0.18450240790843964,0.2985124886035919,-4.385115623,-1.339165449,-0.779881597,-0.152603253,-0.723732086,0.35421479260696764,-0.572237739,1
1709730699640003300,20.10100341796875,7.417798996,-10.58598614,-1.607687473,-0.904390514,0.1919042021036148,0.38111740350723267,-4.469266891,-1.241586804,-0.981596589,-0.113446091,-0.760637759,0.334647436,-0.544583538,1
1709730699650022100,20.111022216796876,8.173915863,-10.95408249,-1.284921408,-0.861561,0.21199113130569458,0.4612721800804138,-4.51584959,-1.207032084,-1.182845116,-0.069381477,-0.795264078,0.31335466039141696,-0.514344233,1
1709730699660041200,20.121041259765626,8.832275391,-11.15057468,-0.816369712,-0.808688879,0.24573427438735962,0.5344497561454773,-4.357326508,-1.096640706,-1.396464586,-0.020687429,-0.826385479,0.2903651279817013,-0.482023887,1
1709730699670060300,20.131060302734376,9.375675201416016,-11.12296772,-0.468201578,-0.746997058,0.29245683550834656,0.5970463156700134,-4.149594307,-0.98342061,-1.530792713,0.031696697,-0.853029267,0.26620337150579737,-0.447741153,1
1709730699680079400,20.141079345703126,9.259025573730469,-11.04364491,-0.074704885,-0.678863645,0.34921467304229736,0.6459051966667175,-4.003387451,-0.847108841,-1.562729359,0.085927916,-0.874435186,0.24148646254303963,-0.411902748,1
1709730699690099500,20.151099365234376,8.670619965,-10.90734863,0.17623865604400635,-0.605207682,0.4090188145637512,0.682954729,-3.829576254,-0.808112442,-1.449495316,0.13817872369888826,-0.891051509,0.21795544574368558,-0.373402246,1
1709730699700118300,20.16111816,8.636363983154297,-10.35896397,0.5362692475318909,-0.529509068,0.47117769718170166,0.7054160237312317,-3.665223598,-0.938554347,-1.194551706,0.18863907468459346,-0.902487716,0.19550938742291163,-0.334226436,1
1709730699710137300,20.171137451171877,8.847467422485352,-10.06048965,0.9150413274765015,-0.453247517,0.5367282629013062,0.711680532,-3.572692394,-1.094254017,-0.808192551,0.23876915904302976,-0.908566824,0.17420275050495942,-0.295209994,1
1709730699720156400,20.181156494140627,9.624428749084473,-9.78991127,1.2413408756256104,-0.376759619,0.6064152121543884,0.7002232074737549,-3.539957762,-0.935150623,-0.570035279,0.2903200781515255,-0.909190062,0.1532482489654903,-0.256129995,1
1709730699730175500,20.191175537109373,10.616743087768555,-9.527791977,1.6660953760147095,-0.300991684,0.6807790994644165,0.6677901148796082,-3.308306932,-0.774956405,-0.273854077,0.34490276280619725,-0.903519408,0.13246783852920974,-0.217133535,1
1709730699740194300,20.20119434,11.67319107055664,-9.010101318,2.050771951675415,-0.227795273,0.7572761178016663,0.6120799779891968,-3.077410936,-0.850553215,0.028316020965576172,0.40252624108999413,-0.890724733,0.1124696805293955,-0.178696773,1
1709730699750213400,20.21121337890625,12.720829010009766,-8.255221367,2.419982433319092,-0.160342053,0.8317846655845642,0.5314366817474365,-3.022732973,-0.948254883,0.3591883182525635,0.4627179237753211,-0.870011905,0.093795633,-0.142034777,1
1709730699760233500,20.2212334,12.937294006347656,-7.389962673,3.019585132598877,-0.099048853,0.8973633050918579,0.4300331473350525,-3.001994848,-0.99924618,0.7439780831336975,0.5229421886473997,-0.841974887,0.078069599,-0.10730761,1
1709730699770252500,20.23125244140625,13.049455642700195,-6.54135704,3.6460113525390625,-0.042032208,0.9482574462890625,0.31470802426338196,-2.969610214,-1.07749939,1.0452924966812134,0.5806726806026333,-0.808027109,0.066679821,-0.07392729,1
1709730699780271400,20.241271240234376,13.019028663635254,-5.671477318,4.247596263885498,0.011761716566979885,0.9818946123123169,0.1890629380941391,-2.930111885,-1.354926109,1.3084803819656372,0.6353869086882847,-0.768728641,0.059897780277964635,-0.041857953,1
1709730699790290400,20.25129052734375,12.622112274169922,-4.84420681,4.808900356292725,0.063357316,0.996193528,0.059868347,-2.82347393,-1.52602458,1.459540843963623,0.6855261291180988,-0.725668175,0.057791633389940394,-0.010940286,1
1709730699800309500,20.26130957,12.35201644897461,-4.108696938,5.285869598388672,0.11365164071321487,0.9911597967147827,-0.068451114,-2.752842426,-1.333399296,1.3863526582717896,0.7306566213548595,-0.679837422,0.059962668692111275,0.019142368940305073,1
1709730699810328600,20.27132861328125,12.36761474609375,-3.239033222,5.561954498291016,0.16225358843803406,0.9673347473144531,-0.19477509,-2.704047441,-1.219760895,1.2228055000305176,0.7714253696495845,-0.63107425,0.066013246,0.047858873,1
1709730699820347400,20.281347412109376,12.095346450805664,-2.196315289,5.9548821449279785,0.20975139737129211,0.9250814914703369,-0.316589028,-2.592899561,-1.140901804,1.1607357263565063,0.8079344591468616,-0.579537135,0.076434256,0.074407365,1
1709730699830367200,20.29136719,10.751738548278809,-1.669567466,6.649982452392578,0.25938522815704346,0.867695153,-0.424057007,-2.496186256,-0.87213552,1.164825439453125,0.8377680012869313,-0.528833813,0.091138872,0.1008622783774775,1
1709730699840386300,20.30138623046875,9.356801033,-1.466104865,7.146653652191162,0.3098144829273224,0.8007871508598328,-0.51259625,-2.434875488,-0.720709085,1.0251237154006958,0.8599935867875032,-0.481767444,0.10771259173250546,0.12926383162848626,1
1709730699850405400,20.31140527,7.611795425415039,-1.074077129,7.412805557250977,0.3587748408317566,0.7295190095901489,-0.582307994,-2.278040648,-0.928417325,0.9026815295219421,0.8751471914110039,-0.439529372,0.12513962245497148,0.15896965892864307,1
1709730699860424000,20.32142383,5.994375705718994,-0.914324462,7.341771602630615,0.4043022692203522,0.6602752804756165,-0.632910967,-2.084005117,-0.916027844,0.82944417,0.8835743396573043,-0.404093319,0.1423134476186493,0.1890816224639151,1
1709730699870443000,20.331443115234375,5.736567497253418,-0.832431972,7.240887641906738,0.4438181519508362,0.5925339460372925,-0.672256649,-2.004899025,-0.478886485,0.6529085040092468,0.8879023510759301,-0.372611634,0.15821579459897228,0.21853559942575357,1
1709730699880462000,20.341462158203125,6.189771652,-0.595360041,7.2880778312683105,0.47931617498397827,0.5178472995758057,-0.708583176,-1.907599926,-0.209192574,0.6384385228157043,0.8906169643912584,-0.339273021,0.17493492416752265,0.24716988313858326,1
1709730699890482200,20.351482177734376,6.7107930183410645,-0.602701843,7.191490173339844,0.5097529888153076,0.4350734353065491,-0.742201447,-1.73843646,-0.068023294,0.7607103586196899,0.8920321757485912,-0.303095626,0.19243784983062273,0.2745527106358844,1
1709730699900501000,20.36150098,7.203729152679443,-0.549342632,6.907533168792725,0.532855213,0.3452254831790924,-0.772583187,-1.596163988,0.1508835256099701,0.7903748750686646,0.8923951852436048,-0.263945427,0.20986000777171146,0.2998708179386317,1
1709730699910520000,20.37152001953125,6.771218776702881,-0.401917726,6.761958599090576,0.5496333837509155,0.25264281034469604,-0.796288073,-1.493298054,0.23635554313659668,0.8756643533706665,0.8909001723207587,-0.224188028,0.22714682001712203,0.3231730985382121,1
1709730699920539100,20.38153906,5.647322177886963,-0.449667037,6.687952518463135,0.5602172613143921,0.16509445011615753,-0.811726809,-1.447607517,0.18752090632915497,0.8541004657745361,0.8865339437141431,-0.187866537,0.24257526659066597,0.34629597294288866,1
1709730699930558200,20.39155810546875,4.956913471221924,-0.113367587,6.406998634338379,0.565826952,0.085282087,-0.820101738,-1.452820301,0.057402849197387695,0.8325834274291992,0.8797063888089155,-0.15593545,0.2561899066849962,0.36900894161648295,1
1709730699940577000,20.401576904296874,4.681302070617676,0.44859427213668823,6.326292037963867,0.5701274275779724,0.009203599,-0.821504772,-1.532575607,-0.061312359,0.9105397462844849,0.8708437653666927,-0.126583145,0.27059995466000564,0.390363492,1
1709730699950596000,20.41159619140625,4.771103382110596,0.948093593,6.114881992340088,0.5743244290351868,-0.06475883,-0.816062331,-1.628065825,0.034149691462516785,0.768302321,0.8599969967480356,-0.099124346,0.2866063497721453,0.4104098063178415,1
1709730699960615200,20.42161523,5.118034362792969,1.304952621459961,5.958920955657959,0.577098012,-0.139641181,-0.804647863,-1.683039904,0.1896442323923111,0.26625674962997437,0.8478222539756645,-0.071390343,0.3042687527543803,0.42839400264485106,1
1709730699970635300,20.43163525390625,4.880248069763184,1.8977304697036743,5.890471458435059,0.5793689489364624,-0.214471743,-0.786341846,-1.637108207,0.013299882411956787,0.040599048137664795,0.8337980293410034,-0.044193901,0.3238456011247273,0.44491776249202775,1
1709730699980654000,20.441654052734375,3.671592950820923,2.098311185836792,5.831208229064941,0.5807177424430847,-0.281779647,-0.763784766,-1.399580717,-0.356190324,0.3750976324081421,0.8177747487557275,-0.021355342,0.34300375303049463,0.4616674833659371,1
1709730699990673200,20.451673095703125,2.7433412075042725,1.7703872919082642,5.629690170288086,0.5774148106575012,-0.339227408,-0.742641866,-1.148887038,-0.591985941,0.4260525107383728,0.8010066693422259,-0.002880685,0.35870707299564714,0.4792800633709028,1
1709730700000692200,20.461692138671875,2.0752549171447754,1.5881919860839844,5.076023101806641,0.570243776,-0.387764126,-0.724196851,-0.881706238,-0.805793643,0.45985352993011475,0.7847690814204816,0.012375567,0.37114474366618677,0.4962217581073302,1
1709730700010711300,20.471711181640625,1.5700432062149048,1.0468254089355469,4.720703601837158,0.5599939227104187,-0.428199917,-0.709261298,-0.670421839,-0.736121893,0.5124687552452087,0.7697913883274579,0.025132604173645875,0.3804440823703039,0.5119099222012312,1
1709730700020730000,20.481730224609375,1.5696754455566406,0.5429938435554504,4.571910381317139,0.5446087718009949,-0.464845985,-0.698082685,-0.613502264,-0.309064507,0.43598252534866333,0.7559558160978315,0.037969479775571136,0.38667424672631767,0.526851063,1
1709730700030749200,20.491749267578125,1.638986349105835,0.33393996953964233,4.250679016113281,0.526289165,-0.499779403,-0.687924683,-0.595167339,-0.066504776,0.5897038578987122,0.7429583266638339,0.051504809,0.3916438585290547,0.5403474748238168,1
1709730700040769000,20.50176904296875,1.351844310760498,0.1664399802684784,4.170085906982422,0.5062770247459412,-0.531884253,-0.678809762,-0.700292528,-0.023703516,0.7020183801651001,0.7305569862446676,0.064721102,0.3954823540069164,0.5528936262140639,1
1709730700050788000,20.51178809,0.9555584788322449,0.37312498688697815,4.069674968719482,0.4852626621723175,-0.560015678,-0.671492755,-0.880663753,0.0093413,0.7838584780693054,0.7181162478559097,0.076354892,0.39802457159062954,0.5657342633294398,1
1709730700060807000,20.521806884765624,1.0665953159332275,0.8054901957511902,4.099050521850586,0.46600624918937683,-0.586110055,-0.662807047,-0.990023613,-0.011530936,0.9578663110733032,0.7048493003272066,0.086337923,0.4014252441428877,0.5784384561747191,1
1709730700070826000,20.531825927734374,0.6051879525184631,0.714408278,4.107192516326904,0.4464181661605835,-0.610777676,-0.65395838,-0.997046828,-0.168961644,1.0059480667114258,0.6907524367649774,0.095438817,0.4048607804836782,0.5914730747983887,1
1709730700080845000,20.541844970703124,0.28084397315979004,0.5162597894668579,3.612304688,0.4262847602367401,-0.630347371,-0.648801625,-0.850326538,-0.301537395,0.8471200466156006,0.6777019338149656,0.10286504050157096,0.4062240573807831,0.6042523475596828,1
1709730700090864000,20.551864013671874,0.4189909100532532,0.3124645948410034,3.2345736026763916,0.40727654099464417,-0.646732807,-0.644874036,-0.684086263,-0.214793682,0.6567758917808533,0.6662959406576631,0.10964589024096777,0.4068669921076117,0.6152128159621758,1
1709730700100883000,20.561883056640625,0.42822012305259705,0.2036186158657074,3.0149877071380615,0.38829782605171204,-0.662025273,-0.641051769,-0.59830457,-0.19176501,0.4069972038269043,0.6558335145801578,0.11672972523450911,0.40724474261042615,0.624826641,1
1709730700110903000,20.571903076171875,0.36562517285346985,0.36476996541023254,2.696401834487915,0.37083426117897034,-0.675412714,-0.637416422,-0.593170047,-0.252336919,0.29809147119522095,0.6460455720412975,0.12301122094260769,0.40762731562745724,0.6335088220308694,1
1709730700120922000,20.581922119140625,0.5142940282821655,0.5766666531562805,2.4817557334899902,0.35626718401908875,-0.687557995,-0.632722437,-0.704457521,-0.317340016,0.2499709129333496,0.6365821715055816,0.12816159341385805,0.4089173443398118,0.6411897754381515,1
1709730700130941200,20.591941162109375,0.4623605012893677,0.6523060202598572,2.293736696243286,0.34356722235679626,-0.69907999,-0.627095461,-0.780029655,-0.411897182,0.18726080656051636,0.6272380948999701,0.13262945606162158,0.41092786143707855,0.6481666570251342,1
1709730700140960000,20.60195996,0.5635864734649658,0.6632871031761169,2.0342695713043213,0.3324565291404724,-0.709513307,-0.621340096,-0.723844528,-0.437444091,0.1724112629890442,0.6184927997451299,0.13648918330457474,0.41315934257157744,0.6543215612093488,1
1709730700150943700,20.61194384765625,0.5706310272216797,0.63885206,1.7934520244598389,0.3228074312210083,-0.719406188,-0.615020454,-0.60697186,-0.384658754,0.21565216779708862,0.6104110060095407,0.14009087641346524,0.4157695399762862,0.6594761005443232,1
1709730700160962800,20.62196289,0.5046392679214478,0.545365572,1.5060540437698364,0.3144811987876892,-0.727941394,-0.609264314,-0.493512601,-0.353616834,0.22730624675750732,0.60333184,0.14319545582652576,0.41816612994688185,0.6637943513494946,1
1709730700170982000,20.63198193359375,0.5510818362236023,0.4726064205169678,1.234049677848816,0.3075545132160187,-0.735377729,-0.603845775,-0.413709909,-0.304554462,0.2200872302055359,0.8955014409986277,0.4105955182845852,0.17172194581070085,6.184189202264872e-18,1
1709730700181002000,20.64200195,0.5436998009681702,0.36242350935935974,0.9820432662963867,0.3018724322319031,-0.742099404,-0.598465919,-0.358436823,-0.31443435,0.22590738534927368,0.8939822,0.41402519746059635,0.1713189473798138,0.005361669,1
1709730700191020800,20.652020751953124,0.584653914,0.3358411490917206,0.7379171848297119,0.2975165843963623,-0.748003125,-0.593275011,-0.35037303,-0.355283618,0.1956920027732849,0.8924959924962812,0.4172487151454743,0.17107308971321444,0.009403891,1
1709730700201040000,20.662039794921874,0.6609090566635132,0.33792805671691895,0.6182025074958801,0.2944464385509491,-0.753650784,-0.587632418,-0.369168729,-0.338573337,0.205125093,0.8908745557288726,0.42056199383024995,0.1712057618397066,0.012601325900746547,1
1709730700211059000,20.672058837890624,0.8283315896987915,0.34634923934936523,0.528039813,0.29212963581085205,-0.759695947,-0.580966711,-0.371658474,-0.317269385,0.15689444541931152,0.8889608991033251,0.42435537487011826,0.17157841576822136,0.015227044,1
1709730700221078000,20.68207813,0.5454031825065613,0.3612164258956909,0.5809744000434875,0.29006144404411316,-0.765626967,-0.574177444,-0.334479779,-0.308835924,0.060490310192108154,0.8870022145296115,0.42813336227696014,0.1720845823149132,0.017771777217482736,1
1709730700231096800,20.692096923828124,-0.601883173,-0.219444811,0.12924371659755707,0.28763535618782043,-0.766653001,-0.57402879,-0.267966777,-0.252573073,-0.100730062,0.8869159385415457,0.4283551485797306,0.171748244,0.01986337,1
1709730700241116000,20.702115966796875,-0.773671687,-0.822705448,-0.424344659,0.28539523482322693,-0.761813045,-0.581541419,-0.149225801,-0.067166448,-0.241212487,0.889059562,0.4249051653187239,0.16936610436466848,0.018542806907584124,0
1709730700251135700,20.71213574,-0.47214964,-0.351437509,-0.856555998,0.2869552969932556,-0.75615412,-0.588122129,0.014802515506744385,-0.051173151,0.5416896343231201,0.8909787889979043,0.42155568764617785,0.1680170880734691,0.014759645769284709,0
1709730700261154800,20.72215478515625,-0.011483228,-0.089931995,-0.49460578,0.29120299220085144,-0.752663016,-0.590507567,-0.082447499,-0.281562448,0.73764807,0.8916973725381554,0.4198862996273084,0.16864668159232465,0.011384771419240724,0
1709730700271173600,20.732173583984373,0.3682965934276581,-0.024063494,-0.163068846,0.29310399293899536,-0.752903163,-0.589259684,-0.347272694,-0.36133939,0.027171671390533447,0.8913666502045764,0.42047828517432384,0.1690212022278937,0.009769507,0
1709730700281192700,20.742192626953123,0.4679044187068939,0.049037881,-0.282744378,0.2947844862937927,-0.754854739,-0.585915029,-0.329528749,-0.33727783,-0.26415205,0.8904411087571579,0.42224769478492485,0.16955635025278828,0.008496678,0
