time,seconds_elapsed,rotationRateX,rotationRateY,rotationRateZ,gravityX,gravityY,gravityZ,accelerationX,accelerationY,accelerationZ,quaternionW,quaternionX,quaternionY,quaternionZ
1709731068264585200,0.032585205078125,-0.036850105971097946,-0.005876393057405949,-0.01371503621339798,0.03288618102669716,-0.5254630446434021,-0.8501806259155273,0.011074405163526535,-0.0003090500831604004,0.015448570251464844,0.9618162794168216,0.27316186848708296,0.017095875246830546,-3.852994058382202e-18
1709731068274604300,0.042604248046875,-0.047982119023799896,-0.017748497426509857,-0.019650954753160477,0.03278312087059021,-0.5249412655830383,-0.8505069017410278,0.012596536427736282,-0.017890214920043945,0.006146550178527832,0.9619010614651134,0.2728679828970425,0.01701805084026771,-0.00008018418661737127
1709731068284624400,0.052624267578125,-0.04718157276511192,-0.023581087589263916,-0.018306858837604523,0.03259096294641495,-0.5243023037910461,-0.8509082794189453,0.011369612067937851,-0.023289859294891357,0.0059070587158203125,0.9620053138972726,0.2725082322159363,0.01688534996811438,-0.00018966186028933482
1709731068294643500,0.0626435546875,-0.008247753605246544,-0.020808737725019455,-0.023848097771406174,0.03241055831313133,-0.5239503383636475,-0.8511319756507874,0.006255213171243668,-0.002187967300415039,0.007580399513244629,0.9620634091169334,0.2723107123846547,0.016759709598831697,-0.00029883611085962603
1709731068304662500,0.07266259765625,-0.005131056532263756,-0.01572849228978157,-0.010287015698850155,0.03231664374470711,-0.5239753127098083,-0.8511201739311218,0.0018477924168109894,0.018665194511413574,0.0012361407279968262,0.9620603021163767,0.2723263516297324,0.016681695477102215,-0.00040218312487145055
1709731068314681300,0.082681396484375,-0.014153579249978065,-0.006686153821647167,-0.017477016896009445,0.03236381709575653,-0.523996114730835,-0.8511056303977966,0.002380460500717163,0.019754111766815186,-0.0016470551490783691,0.9620565447921722,0.2723398272568428,0.016679850555301894,-0.0004955199368171728
1709731068324705000,0.092705078125,-0.040435515344142914,0.008307975716888905,-0.019516468048095703,0.03252965584397316,-0.5237258672714233,-0.8512656092643738,0.0031148679554462433,0.009092628955841064,-0.006598770618438721,0.9620982374892771,0.27217899062120354,0.016905578738551114,5.692339999979206e-17
1709731068334724000,0.10272412109375,-0.03841470927000046,0.026669565588235855,-0.020616617053747177,0.032826147973537445,-0.52333664894104,-0.8514935374259949,0.0007431842386722565,-0.004892110824584961,-0.010704338550567627,0.962157424416963,0.27196129825528076,0.01703773553939689,-0.00007387176084347837
1709731068344743200,0.1127431640625,-0.010310105979442596,0.042672500014305115,-0.023000415414571762,0.0333254300057888,-0.523201584815979,-0.8515571355819702,-0.0010683313012123108,-0.012793958187103271,-0.014821648597717285,0.962173906677465,0.2718876586728107,0.01727824012346614,-0.0001399259290149758
1709731068354762000,0.122761962890625,0.039342932403087616,0.05344834178686142,-0.03410499542951584,0.03397621214389801,-0.523409903049469,-0.8514033555984497,-0.00593055784702301,-0.012600839138031006,-0.012915492057800293,0.962133927372449,0.2720087308374026,0.017594590115351017,-0.00021967666305702403
1709731068364781000,0.132781005859375,0.08234952390193939,0.052231281995773315,-0.05963991582393646,0.034743957221508026,-0.5241036415100098,-0.8509454727172852,-0.009109187871217728,0.006266117095947266,-0.011496543884277344,0.9620148855392228,0.27240632401727227,0.01794568905556841,-0.00039631406469872277
1709731068374801200,0.14280126953125,0.07884453237056732,0.05298691987991333,-0.06696547567844391,0.035573408007621765,-0.5247944593429565,-0.8504853844642639,-0.0076193176209926605,0.025496363639831543,-0.012536466121673584,0.9618951882361384,0.2728042527885054,0.018307350530304207,-0.0006486393502419217
1709731068384820200,0.1528203125,0.07498481869697571,0.0413140207529068,-0.0738859623670578,0.036337777972221375,-0.5253430604934692,-0.8501142859458923,-0.005789663642644882,0.02198612689971924,-0.011671662330627441,0.9617984851531576,0.27312242282834087,0.018628253450265034,-0.0009236288711572359
1709731068394839300,0.16283935546875,0.02216261625289917,0.02564920112490654,-0.08305549621582031,0.03701886162161827,-0.5256264805793762,-0.8499096632003784,-0.004807554185390472,0.01088649034500122,-0.003209233283996582,0.9617448914445531,0.2732919779424916,0.018885729119126157,-0.0012666967828503285
1709731068404858000,0.172858154296875,-0.00472039682790637,0.01347216498106718,-0.06852448731660843,0.03757433593273163,-0.5255618095397949,-0.8499252796173096,-0.0027537867426872253,0.005282878875732422,-0.0020644664764404297,0.9617484616348119,0.2732644963835967,0.019075722394398125,-0.001614265141479642
1709731068414878200,0.182878173828125,-0.015725642442703247,0.015532918274402618,-0.064119353890419,0.03800278902053833,-0.5254189968109131,-0.8499945402145386,0.00015946105122566223,0.00040984153747558594,0.0035895109176635742,0.9617659817229718,0.27319113454428157,0.01921830257284958,-0.0018956863815912013
1709731068424897300,0.192897216796875,-0.018855921924114227,0.01470094732940197,-0.09385194629430771,0.03851095214486122,-0.5252233147621155,-0.8500925898551941,-0.00048604607582092285,-0.012160718441009521,0.006968259811401367,0.9617907233310147,0.2730897949409572,0.019381921803047555,-0.0022487991794182317
1709731068434916400,0.202916259765625,0.022073399275541306,0.0168262030929327,-0.09365247935056686,0.039063699543476105,-0.5252009630203247,-0.850081205368042,-0.00805782899260521,-0.008475244045257568,0.004637479782104492,0.9617866062790542,0.2730884866407479,0.019546994586764198,-0.0026797606304765254
1709731068444935200,0.21293505859375,0.04988958686590195,0.018490411341190338,-0.07403510063886642,0.039559390395879745,-0.5253892540931702,-0.8499419093132019,-0.008873961865901947,0.004118502140045166,0.008144974708557129,0.9617492900543173,0.27320514687811676,0.01969790262276286,-0.0030572326805140557
1709731071200223200,2.96822314453125,0.9732993841171265,6.363822937011719,-0.9766703844070435,-0.06164667010307312,-0.8577336072921753,0.5103851556777954,-0.546156644821167,-0.8727046847343445,0.7370667457580566,0.45797633498221424,0.825884507546248,0.2703837329790594,0.18725703815264977
1709731071210242300,2.9782421875,1.014805555343628,6.403689861297607,-1.3403184413909912,-0.08444547653198242,-0.8537191152572632,0.5138415098190308,-0.6726193428039551,-0.9803417325019836,0.8487685322761536,0.44625696450099284,0.8200576994864851,0.29056175740409995,0.2096046964496901
1709731071220261400,2.988261474609375,1.0216416120529175,6.404853820800781,-1.726718783378601,-0.10452507436275482,-0.849783718585968,0.5166648030281067,-0.846585750579834,-1.0855953693389893,0.9763009548187256,0.4339932533805316,0.8129672349213533,0.31211646090568446,0.230905956636406
1709731071230280400,2.998280517578125,0.8669961094856262,6.346877574920654,-2.2693405151367188,-0.12062010169029236,-0.8471168279647827,0.5175368785858154,-0.9786993265151978,-1.1687525510787964,1.0988574028015137,0.4222220282143866,0.8040758693917173,0.33500810288460836,0.25091892321255876
1709731071240299300,3.00829931640625,0.5524232387542725,6.234128475189209,-2.7994041442871094,-0.13172577321529388,-0.8466021418571472,0.5156680941581726,-1.091662883758545,-1.1537489891052246,1.2219114303588867,0.4117114665625283,0.7929745652810329,0.35920104096813776,0.269554765201168
1709731071250319400,3.0183193359375,0.06386425346136093,6.0437703132629395,-3.4172401428222656,-0.1369861364364624,-0.8491784334182739,0.5100303292274475,-1.1718517541885376,-1.1402777433395386,1.4205727577209473,0.40335234779234475,0.7792617522551568,0.38440378956303234,0.28686540868130134
1709731071260338400,3.02833837890625,-0.2873230576515198,5.786264896392822,-3.9796245098114014,-0.13533413410186768,-0.8549060225486755,0.5008203387260437,-1.2315024137496948,-1.1565840244293213,1.5823249816894531,0.3975527718176513,0.7628845919763918,0.4103867362379623,0.30255880160565896
1709731071270357200,3.038357177734375,-0.3414640426635742,5.458296775817871,-4.496772289276123,-0.1268497109413147,-0.8621295690536499,0.49055278301239014,-1.3231624364852905,-1.0455243587493896,1.6749136447906494,0.39341730959542526,0.7444917189434985,0.4370451516579437,0.3161431871136055
1709731071280376300,3.048376220703125,-0.2959836721420288,5.071578502655029,-5.020534992218018,-0.11118722707033157,-0.8693837523460388,0.4814658761024475,-1.351062536239624,-0.9866495132446289,1.6982064247131348,0.39038809576550243,0.7246277802675802,0.4643786302796022,0.3269009399174045
1709731071290396200,3.058396240234375,-0.323017418384552,4.6579508781433105,-5.623857498168945,-0.08806612342596054,-0.8761215806007385,0.47397905588150024,-1.3945083618164062,-1.0445635318756104,1.6446888446807861,0.3885921177258518,0.7032553320529613,0.49236314316989294,0.3346743182257536
1709731071300415200,3.068415283203125,-0.6536397933959961,4.198108673095703,-6.206465244293213,-0.05636199936270714,-0.8826833963394165,0.46657660603523254,-1.4593392610549927,-0.9969705939292908,1.627555012702942,0.38911341119066517,0.6797642830230088,0.5207771321926994,0.3395623617546896
1709731071310434300,3.078434326171875,-0.91036456823349,3.7663869857788086,-6.825493335723877,-0.01727309823036194,-0.8887556195259094,0.4580559730529785,-1.543121099472046,-0.8365557193756104,1.653638482093811,0.3921502069005501,0.6540135184888337,0.5489028237220955,0.34233069891933743
1709731071320453400,3.088453369140625,-1.2613627910614014,3.222325563430786,-7.43865966796875,0.030601952224969864,-0.8931961059570312,0.44862502813339233,-1.5996936559677124,-0.6989822387695312,1.707350492477417,0.3980108647557615,0.6257482069779655,0.5768463366901204,0.3424542510567188
1709731071330473500,3.098473388671875,-1.5158288478851318,2.7761006355285645,-7.871769428253174,0.0861322358250618,-0.8949671983718872,0.43773895502090454,-1.594539761543274,-0.5998907089233398,1.6416832208633423,0.4065913901380738,0.5950504880767948,0.6039738305859489,0.3403147246758544
1709731076930417700,8.698417724609374,0.24944770336151123,5.883433818817139,-3.1558499336242676,-0.1698763370513916,-0.8874102830886841,0.4285387396812439,-0.9334256649017334,-0.984858512878418,1.2889906167984009,0.4146883258947142,0.7442254327772432,0.4004970274474172,0.33728974631901565
1709731076940436500,8.7084365234375,0.35984131693840027,6.005845546722412,-3.685490608215332,-0.16474305093288422,-0.8919191956520081,0.4211180806159973,-1.0647491216659546,-1.1808502674102783,1.4242496490478516,0.40720551254496895,0.727468420013507,0.4258506115850075,0.3516032241677356
1709731076950455600,8.71845556640625,0.48097655177116394,5.92350959777832,-4.34490966796875,-0.15397614240646362,-0.8964866399765015,0.41545620560646057,-1.199981927871704,-1.4036846160888672,1.520731806755066,0.3996438132053951,0.7088180049915105,0.453106106602352,0.3640837601376794
1709731076960474400,8.728474365234375,0.5061660408973694,5.6647467613220215,-5.298649787902832,-0.1347130984067917,-0.9014522433280945,0.4113842844963074,-1.320853352546692,-1.5774147510528564,1.5413137674331665,0.39324424922616247,0.6877757119850979,0.482345014716071,0.3737206046726325
1709731076970494500,8.738494384765625,0.5719152092933655,5.251898288726807,-6.29658317565918,-0.10465755313634872,-0.9062255620956421,0.4096370041370392,-1.453081727027893,-1.60422682762146,1.5612646341323853,0.3887496763159167,0.664027174542712,0.5136987587341273,0.3795462174828827
1709731076980513300,8.74851318359375,0.6553797721862793,4.69275426864624,-7.268152236938477,-0.06336145848035812,-0.9094112515449524,0.411043256521225,-1.642952561378479,-1.5095188617706299,1.593381643295288,0.38644047448349345,0.6376910461015689,0.5466916536613542,0.38097525680956407
1709731076990532400,8.758532470703125,0.47032493352890015,4.016888618469238,-8.204620361328125,-0.010900624096393585,-0.9098812341690063,0.4147256016731262,-1.8499239683151245,-1.4523470401763916,1.5892722606658936,0.3870105873543107,0.60869528138928,0.5803902625341648,0.3779682468458278
1709731077000551400,8.768551513671875,0.004369504749774933,3.295469284057617,-9.19615650177002,0.05305849760770798,-0.9070715308189392,0.4176199734210968,-2.115314245223999,-1.4796779155731201,1.6102122068405151,0.3916960128887959,0.5762605196115949,0.6137864410490105,0.37116624403389875
1709731077010570500,8.778570556640625,-0.23983651399612427,2.591339111328125,-10.115872383117676,0.12820740044116974,-0.8989095687866211,0.4189566373825073,-2.3999969959259033,-1.3989877700805664,1.6970713138580322,0.40053645359630424,0.5400693740932226,0.64637713100899,0.3606831093563109
1709731077020590600,8.788590576171876,-0.15907588601112366,1.8488606214523315,-10.885819435119629,0.21274177730083466,-0.8818578720092773,0.4207940399646759,-2.656543731689453,-1.0558862686157227,1.7679877281188965,0.4123427810248703,0.500792509797143,0.6779409170247889,0.34579820807608436
1709731077030609400,8.798609375,0.1333884745836258,0.9652768969535828,-11.415421485900879,0.30382421612739563,-0.8530339002609253,0.42429319024086,-2.902212619781494,-0.5527127981185913,1.7865835428237915,0.4262519926839608,0.45963189731964604,0.707732372349295,0.3258264579817169
1709731077040628500,8.80862841796875,0.3744029402732849,0.039451032876968384,-11.781587600708008,0.39855363965034485,-0.8110637068748474,0.4281713366508484,-3.1745545864105225,-0.022584915161132812,1.7374933958053589,0.4420948273888714,0.41741784729446746,0.7347434955766108,0.3007764959244109
1709731077050647600,8.8186474609375,0.22490188479423523,-0.9524668455123901,-12.073087692260742,0.49417200684547424,-0.7562975287437439,0.4287285804748535,-3.452286720275879,0.41170835494995117,1.6145758628845215,0.4602229262084863,0.37423550155282054,0.7578338111771743,0.27171791139984197
1709731077060667400,8.82866748046875,-0.10864786058664322,-1.6650975942611694,-12.17362117767334,0.5881989002227783,-0.6899925470352173,0.4218204617500305,-3.7627899646759033,0.7248588800430298,1.4538815021514893,0.4808916001179318,0.32923772563790155,0.7762169504065937,0.2404851126521828
1709731077070686500,8.8386865234375,0.13391657173633575,-2.3907132148742676,-12.075858116149902,0.6758079528808594,-0.6133248209953308,0.40879878401756287,-4.064342498779297,1.0871102809906006,1.2425379753112793,0.502471795149613,0.2838965052736408,0.7898114755581919,0.20766021891140793
1709731077080705300,8.848705322265625,0.2744215130805969,-3.124056816101074,-11.928291320800781,0.7555248737335205,-0.5262061357498169,0.39024293422698975,-4.193772315979004,1.5265570878982544,0.9971320629119873,0.5245931988139149,0.23924583985432274,0.7986757148798868,0.17228058223303888
1709731077090724400,8.858724365234375,0.5462998747825623,-3.7342822551727295,-11.62472152709961,0.8251253962516785,-0.4312683343887329,0.3649327754974365,-4.259771823883057,1.846063256263733,0.671779990196228,0.5470189653587402,0.1956942290338928,0.8026021179502845,0.13529208980382132
1709731077100743400,8.868743408203125,0.6142575740814209,-4.226471900939941,-11.225584030151367,0.8827975392341614,-0.3312177062034607,0.33311164379119873,-4.256165027618408,2.0700178146362305,0.31027525663375854,0.5691648751441252,0.15368862571030392,0.8018326701448186,0.09744512578179958
1709731077110763500,8.878763427734375,1.2969392538070679,-4.649464130401611,-10.693215370178223,0.927628755569458,-0.22880688309669495,0.29521605372428894,-4.199692726135254,2.2148756980895996,0.08550617098808289,0.5906928158408026,0.1141897716574541,0.7965982167610645,0.05894108965160918
1709731077120782300,8.8887822265625,1.7586562633514404,-5.28985071182251,-10.039340019226074,0.959621787071228,-0.126478910446167,0.2512558400630951,-4.175533294677734,2.3110949993133545,-0.03455042839050293,0.6115593013123544,0.07873781770005199,0.7870376556451364,0.019168852003828157
1709731080657569000,12.425569091796875,0.2777067720890045,4.704599857330322,-0.10611207783222198,-0.13187599182128906,-0.855900764465332,0.5000433325767517,-0.5810604095458984,-0.8192245960235596,0.7844722867012024,0.42504146892364475,0.7970965660551989,0.3386129499373977,0.2632837128953771
1709731080667588900,12.4355888671875,0.3822989761829376,4.741329193115234,-0.486589640378952,-0.15310394763946533,-0.8546320199966431,0.49614882469177246,-0.6428250074386597,-0.9445013999938965,0.8535217046737671,0.41593840174512536,0.7908791339596989,0.3501208382346027,0.2809287318485502
1709731080677608000,12.44560791015625,0.3487599194049835,4.811570644378662,-1.0130550861358643,-0.17034362256526947,-0.8540775775909424,0.4914618134498596,-0.7221124172210693,-1.1581599712371826,0.9366846084594727,0.4070869107725581,0.7833694656171138,0.3634049895285944,0.297572516499487
1709731080687627000,12.455626953125,0.4740621745586395,4.9585065841674805,-1.5283913612365723,-0.1832873374223709,-0.8543559908866882,0.4862937331199646,-0.8129894733428955,-1.352492094039917,1.0520057678222656,0.3983940773683509,0.7743490897033442,0.3788540077521816,0.3132655123356149
1709731080697645800,12.465645751953126,0.5160354971885681,5.144521713256836,-2.1228578090667725,-0.19227123260498047,-0.8552956581115723,0.48114630579948425,-0.954869270324707,-1.4759576320648193,1.253915548324585,0.3895292052348093,0.7637211108933305,0.39661468993500887,0.3281677228469408
1709731080707665000,12.475664794921874,0.4338047504425049,5.380132675170898,-2.8965237140655518,-0.1960046887397766,-0.8578957915306091,0.47497063875198364,-1.0919743776321411,-1.631789207458496,1.4315998554229736,0.38120855714337304,0.7506948671017978,0.41706419176249665,0.3423372100671988
1709731080717685000,12.48568505859375,0.2892494201660156,5.546542644500732,-3.7367467880249023,-0.19329750537872314,-0.8626508116722107,0.4674077332019806,-1.2883156538009644,-1.7375080585479736,1.6141353845596313,0.3739015414934248,0.7346979694059801,0.4403666284891413,0.35565977399526655
1709731080727704000,12.4957041015625,0.1580197811126709,5.647729873657227,-4.66916036605835,-0.18282754719257355,-0.8695942163467407,0.4586726725101471,-1.5426057577133179,-1.7397047281265259,1.8318853378295898,0.36802629738003084,0.7153956271542098,0.46641766328874584,0.3677234344807926
1709731080737723000,12.505722900390625,0.0487806461751461,5.582218170166016,-5.659852504730225,-0.16328881680965424,-0.8780151009559631,0.4499185085296631,-1.762904405593872,-1.7123932838439941,1.996157169342041,0.36369316714990974,0.692671993682452,0.4951411562807512,0.37784675534788575
1709731080747742000,12.515741943359375,-0.4039309024810791,5.36128568649292,-6.8877058029174805,-0.1323978155851364,-0.8880595564842224,0.44025149941444397,-1.9821345806121826,-1.7348958253860474,2.129572868347168,0.3622199790212416,0.6658750259736552,0.5260572192536114,0.38557887472953
1709731080757762000,12.525761962890625,-0.7624669671058655,4.9207048416137695,-8.226547241210938,-0.08717209100723267,-0.8989913463592529,0.42920395731925964,-2.203965663909912,-1.7537341117858887,2.1957809925079346,0.3648349735972904,0.6342055876089853,0.5589143495816515,0.3902481339467171
1709731080767781000,12.535781005859375,-0.976718544960022,4.345850944519043,-9.503619194030762,-0.026520973071455956,-0.9078086614608765,0.4185454249382019,-2.4972522258758545,-1.564771294593811,2.258227825164795,0.371541586480547,0.5978998569853969,0.5931175895235439,0.3907482733810462
1709731080777800200,12.54580029296875,-1.0100866556167603,3.738135576248169,-10.668723106384277,0.0488247312605381,-0.9108551740646362,0.40982797741889954,-2.8244595527648926,-1.2950162887573242,2.2207109928131104,0.3817622063355338,0.5572303535981482,0.6280193636292529,0.38645004027420066
1709731080787819000,12.555819091796875,-1.0914111137390137,3.054715156555176,-11.780718803405762,0.13692879676818848,-0.9047086834907532,0.4034269154071808,-3.127941370010376,-1.0895085334777832,2.1481175422668457,0.3949852095982023,0.5124233280588084,0.6626732109680714,0.37719148969492766
1709731080797838800,12.5658388671875,-1.3229169845581055,2.409574031829834,-12.815507888793945,0.2369956225156784,-0.8864856958389282,0.39746221899986267,-3.4518089294433594,-0.9360087513923645,2.097426176071167,0.41166213025631354,0.4628622593090479,0.6960529028861986,0.3630471144760046
1709731080807858000,12.57585791015625,-0.9139901399612427,1.7816696166992188,-13.62252140045166,0.3440070152282715,-0.8525252342224121,0.3935231864452362,-3.8227057456970215,-0.6542651653289795,2.019547700881958,0.4300872298552458,0.4095092346184121,0.7273677106935337,0.3438947183164244
1709731080817877000,12.585876953125,-0.23934754729270935,0.8432801365852356,-14.111549377441406,0.4539988934993744,-0.799226701259613,0.39385518431663513,-4.127246856689453,-0.18040287494659424,1.787480354309082,0.4493831442095146,0.3543459653578217,0.7558879117560973,0.31800515479903735
1709731080827895800,12.595895751953124,0.4847012162208557,-0.19198639690876007,-14.25919246673584,0.5615074038505554,-0.7263230681419373,0.39644017815589905,-4.318343162536621,0.4026077389717102,1.325758457183838,0.469438011571478,0.29947930764340164,0.7800847600054323,0.28532101284556693
1709731080837915000,12.605914794921874,0.7852096557617188,-1.456602692604065,-14.114022254943848,0.6619073748588562,-0.6365320086479187,0.39586102962493896,-4.505825042724609,1.037700891494751,0.8975961208343506,0.49074372489115686,0.24592590188050392,0.7984052655852805,0.24746757739691588
1709731086765494500,18.53349462890625,-0.1970626711845398,4.23856258392334,-3.789302110671997,0.017677249386906624,-0.8631250262260437,0.5046807527542114,-0.7840041518211365,-1.257098913192749,1.3162879943847656,0.47049502013844097,0.8140802210986837,0.29935559793063776,0.16215440442147513
1709731086775513600,18.543513671875,-0.4727293848991394,4.267400741577148,-4.491439342498779,0.03198521211743355,-0.863786518573761,0.5028420686721802,-0.8742551207542419,-1.3027938604354858,1.4260520935058594,0.46862781053047364,0.8032666734153979,0.3258583712612563,0.17019713932974231
1709731086785532700,18.55353271484375,-0.6214227676391602,4.213957786560059,-5.2102766036987305,0.05266707018017769,-0.8645718097686768,0.49974194169044495,-1.0435880422592163,-1.2917088270187378,1.582029938697815,0.46786075553586054,0.7899742043053339,0.3546994933452412,0.1767354397766246
1709731086795551700,18.5635517578125,-0.71932053565979,4.040709972381592,-5.884084701538086,0.08005077391862869,-0.8642016649246216,0.49673670530319214,-1.2746461629867554,-1.1831462383270264,1.720945119857788,0.4677671907826339,0.7744290686212332,0.385522975347603,0.18117812994046703
1709731086805571800,18.57357177734375,-0.739345371723175,3.709033489227295,-6.643293857574463,0.11491873115301132,-0.8617972731590271,0.4940640926361084,-1.5006914138793945,-1.0882759094238281,1.8315433263778687,0.4685226448022539,0.7565229557114701,0.4179773422093386,0.18290586225598077
1709731086815590700,18.583590576171876,-0.6280915141105652,3.1350669860839844,-7.331851959228516,0.15812453627586365,-0.8556782603263855,0.49275922775268555,-1.6733222007751465,-1.0375714302062988,1.9295278787612915,0.47002269710702393,0.7365230941025548,0.4515676507430829,0.1808290546962209
1709731086825609700,18.593609619140626,-0.3689012825489044,2.2911410331726074,-8.003026008605957,0.21001893281936646,-0.843909740447998,0.49366873502731323,-1.8155333995819092,-0.8751150369644165,1.9701374769210815,0.4722045177279114,0.7149612989519242,0.48545310128610347,0.17374881540021192
1709731086835628800,18.60362890625,-0.48829931020736694,1.4371498823165894,-8.702042579650879,0.27063655853271484,-0.8258498907089233,0.4947003722190857,-2.020697593688965,-0.6005114316940308,1.9889729022979736,0.4759783765060974,0.6914080725181875,0.518946105603653,0.16153824333699324
1709731086845647600,18.613647705078126,-0.805015504360199,0.450106680393219,-9.429604530334473,0.33988311886787415,-0.8013467788696289,0.49226295948028564,-2.2953884601593018,-0.3043202757835388,2.0287790298461914,0.4826065867584878,0.6647714667688828,0.5515526928311403,0.1447736699484288
1709731086855667700,18.623667724609376,-1.0529981851577759,-0.6324604153633118,-9.979303359985352,0.416803240776062,-0.7690830230712891,0.4845479428768158,-2.5556275844573975,0.031198441982269287,2.077723264694214,0.49243198831427143,0.6349216460548205,0.582364556576103,0.1234377707687742
1709731086865686500,18.6336865234375,-1.0367743968963623,-1.7935000658035278,-10.334664344787598,0.49893298745155334,-0.7274841666221619,0.47099146246910095,-2.863389015197754,0.3812927007675171,2.066880941390991,0.504983222028707,0.6025359714650824,0.6102836494869821,0.09744898207294704
1709731086875705600,18.64370556640625,-1.0367515087127686,-3.0021049976348877,-10.495686531066895,0.5833532214164734,-0.6757168769836426,0.450672447681427,-3.0682013034820557,0.7104916572570801,1.9365954399108887,0.5197993688882553,0.5683766475128043,0.6342587893728254,0.06687590142696097
1709731086885724700,18.653724609375,-1.0569425821304321,-4.061129093170166,-10.525242805480957,0.666948676109314,-0.6144313216209412,0.42149001359939575,-3.174532175064087,0.9447382688522339,1.750140905380249,0.536829612859654,0.532468038561079,0.6536228200497919,0.0326963079417547
1709731086895743500,18.663743408203125,-0.8196266293525696,-4.811033248901367,-10.391142845153809,0.7457600235939026,-0.5440448522567749,0.38452279567718506,-3.2227344512939453,1.2014391422271729,1.553511381149292,0.5547252519017772,0.49558554713241204,0.6683235471754877,-0.004326351763115096
1709731086905763600,18.673763671875,-1.0465223789215088,-5.4508490562438965,-10.21748161315918,0.8166125416755676,-0.46668878197669983,0.33962559700012207,-3.217064142227173,1.468245267868042,1.331929087638855,0.5730403595060731,0.45760731987346376,0.6785339598128827,-0.04256687898724241
1709731086915782700,18.68378271484375,-0.973426103591919,-5.865811824798584,-10.049661636352539,0.8776625990867615,-0.3838057518005371,0.28705689311027527,-3.1288375854492188,1.655137538909912,1.1524267196655273,0.5915262087888734,0.4182124409908718,0.6845632218282415,-0.08104546859954212
1709731086925801700,18.6938017578125,-1.4633965492248535,-6.443931579589844,-9.891793251037598,0.9274532198905945,-0.2966172695159912,0.22770348191261292,-3.07058048248291,1.8221909999847412,0.944217324256897,0.6098493773276752,0.3774913519225025,0.686550812407853,-0.11929814474221684
1709731086935820500,18.703820556640625,-2.155303955078125,-7.370930194854736,-10.289667129516602,0.9660487174987793,-0.20473840832710266,0.15758340060710907,-2.9837639331817627,1.9750325679779053,0.655389666557312,0.6298844391272986,0.33241295901087203,0.6843196098435139,-0.1563780237693231
1709731086945839600,18.713839599609376,-2.167449951171875,-8.1237211227417,-10.798434257507324,0.9915425181388855,-0.1037265732884407,0.07800469547510147,-2.720027446746826,2.2996037006378174,0.28738224506378174,0.6504435043773129,0.28259866194146105,0.6775989552567773,-0.19473344509418408
1709731089641007900,21.4090078125,0.7694157361984253,3.2124922275543213,1.1729964017868042,0.2610475718975067,-0.8950666189193726,0.36153891682624817,-0.18418902158737183,0.35319632291793823,0.3688078224658966,0.5434744976871574,0.8250683152141972,0.005633325355987968,-0.15448686117409083
1709731089651027000,21.41902685546875,0.6663956046104431,3.2531161308288574,1.1444010734558105,0.23877033591270447,-0.8953152894973755,0.3760315179824829,-0.19542013108730316,0.25304222106933594,0.33579111099243164,0.5412419282795018,0.8294170785627422,0.009114079439073098,-0.13799118573331534
1709731089661046000,21.4290458984375,0.5786277055740356,3.3032708168029785,1.206918716430664,0.21566243469715118,-0.895635187625885,0.3890088200569153,-0.22342917323112488,0.22701001167297363,0.31216320395469666,0.5392627526013969,0.8332730158913911,0.012668252317297537,-0.12120841634968589
1709731089671065000,21.439065185546873,0.5950144529342651,3.4078240394592285,1.2318779230117798,0.1914326250553131,-0.8958088159561157,0.40109845995903015,-0.24264118075370789,0.24491477012634277,0.29256612062454224,0.5372611277753634,0.8368298835038941,0.016277980139595857,-0.10392887128371427
1709731089681085200,21.449085205078124,0.4764214754104614,3.5448157787323,1.2513234615325928,0.16611409187316895,-0.8958303928375244,0.4121825397014618,-0.2630227208137512,0.1899433732032776,0.27022117376327515,0.5352606405181672,0.8400514805439055,0.020119089448915533,-0.08605197200472824
1709731089691104000,21.45910400390625,0.33801591396331787,3.7713463306427,1.2208547592163086,0.13972458243370056,-0.8960513472557068,0.4213899075984955,-0.28384384512901306,0.05497145652770996,0.28356629610061646,0.5336342969954674,0.8426705286829783,0.024522060238447364,-0.06737684433186214
1709731089701123000,21.469123046875,0.2007283717393875,4.051313877105713,1.225373387336731,0.11198151111602783,-0.8964371681213379,0.4287901818752289,-0.27367889881134033,-0.030702292919158936,0.30975061655044556,0.5323024068944365,0.8446948792384609,0.029759828919635307,-0.04753139509961376
1709731089711142100,21.47914208984375,0.35138070583343506,4.41249418258667,1.097008466720581,0.08340306580066681,-0.8964303135871887,0.4352661371231079,-0.2408127784729004,-0.10506504774093628,0.3266661763191223,0.5307152351716063,0.8463612429462924,0.036134733517183,-0.026613077653191236
1709731089721162000,21.489161865234376,0.431212455034256,4.7381367683410645,1.035954475402832,0.05356369540095329,-0.8953720331192017,0.44208595156669617,-0.23561635613441467,-0.20521396398544312,0.367057204246521,0.5281454626361866,0.8480209844676655,0.04362772858260467,-0.004410339360650492
1709731089731180800,21.499180908203126,0.33451226353645325,5.0929694175720215,0.7391408681869507,0.02367447502911091,-0.8940355181694031,0.4473702311515808,-0.23133137822151184,-0.3773573040962219,0.3730033338069916,0.525322780865171,0.849056102262365,0.052809595792842855,0.018732385226699517
1709731089741200000,21.509199951171876,0.4334220588207245,5.469172954559326,0.4939103424549103,-0.005542305298149586,-0.8924046754837036,0.4512021243572235,-0.20977450907230377,-0.5758418440818787,0.44833409786224365,0.5220887395957143,0.8494036393223557,0.06414453427100779,0.04268911734414311
1709731089751219000,21.519218994140626,0.6076481938362122,5.796785354614258,0.28229770064353943,-0.03459525480866432,-0.8899675011634827,0.4547102153301239,-0.28458812832832336,-0.7459274530410767,0.529878556728363,0.5177736938476122,0.8493401538876975,0.07730721545919304,0.06749388789741743
1709731089761238000,21.529238037109376,0.6837818026542664,6.020418643951416,-0.01483063492923975,-0.0629177913069725,-0.8869224190711975,0.45761388540267944,-0.3994388282299042,-0.9828135371208191,0.6184818148612976,0.5124348703775852,0.8487048339075866,0.09223365238374656,0.09275620174693427
1709731089771258000,21.539258056640627,0.708161473274231,6.207675457000732,-0.45530202984809875,-0.08901270478963852,-0.8839108347892761,0.4591064453125,-0.545264720916748,-1.2452092170715332,0.7402650117874146,0.5065224311048715,0.8471317132502317,0.10918369863747038,0.11782151716851644
1709731092927309800,24.695309814453125,1.581730842590332,2.998415946960449,1.923181176185608,0.21085712313652039,-0.8950990438461304,0.39285799860954285,-0.4702413082122803,0.39769285917282104,0.33671051263809204,0.5466731068334899,0.8298094571936853,0.08857351947640042,-0.06869986987588848
1709731092937329700,24.70532958984375,1.5390770435333252,2.9502429962158203,1.922698974609375,0.1815958470106125,-0.8925403952598572,0.412788987159729,-0.45423996448516846,0.3106005787849426,0.373404860496521,0.5393801648273607,0.8358324044735803,0.08819686185648706,-0.051716450381843866
1709731092947348500,24.715348388671874,1.5804449319839478,2.885645866394043,1.8936408758163452,0.15225668251514435,-0.8891482949256897,0.43154799938201904,-0.36856532096862793,0.2361176609992981,0.37809866666793823,0.5319757766347656,0.8414790476053594,0.08767558124890885,-0.035041937408435614
1709731092957367600,24.725367431640624,1.469765543937683,2.7726757526397705,1.83446204662323,0.12291867285966873,-0.8850168585777283,0.44903936982154846,-0.3200012445449829,0.1702951192855835,0.3584710359573364,0.5245290937008114,0.8467307988586412,0.08698642470566113,-0.01869829937796698
1709731092967386600,24.73538671875,1.3746968507766724,2.7669804096221924,1.7192624807357788,0.09461333602666855,-0.8803869485855103,0.4647231101989746,-0.31127288937568665,0.08175694942474365,0.36640793085098267,0.5173296465876879,0.8513871776424494,0.08661075872322359,-0.002936801626759046
1709731092977405700,24.74540576171875,1.1796525716781616,2.7743101119995117,1.5298826694488525,0.06713879853487015,-0.8756627440452576,0.4782331883907318,-0.3323366045951843,0.01840883493423462,0.3990403413772583,0.5106129218537193,0.8553274473367606,0.08678453147449688,0.012561157232013813
1709731092987425500,24.755425537109375,0.9665030241012573,2.8886783123016357,1.3070815801620483,0.04103519394993782,-0.8712340593338013,0.48914968967437744,-0.3534894585609436,-0.051190316677093506,0.41180551052093506,0.5046294675479875,0.858389350872106,0.08799186896255815,0.027826175632934613
1709731092997444600,24.765444580078125,0.904884397983551,3.012624979019165,1.106070637702942,0.015934253111481667,-0.8670271635055542,0.49800625443458557,-0.4170878529548645,-0.11943835020065308,0.494394987821579,0.49913364758659406,0.8607171261785393,0.09038334226548178,0.043157316023490044
1709731093007463700,24.775463623046875,0.8340882062911987,3.1620867252349854,0.8967270255088806,-0.008280688896775246,-0.8626338243484497,0.5057616233825684,-0.4479571580886841,-0.1666327714920044,0.5603852868080139,0.4936490625392955,0.8625859140950786,0.09394860775316781,0.05856574465981679
1709731093017482800,24.785482666015625,0.6777889132499695,3.296184539794922,0.6706923246383667,-0.03150004521012306,-0.8586528897285461,0.5115890502929688,-0.4573610723018646,-0.2744802236557007,0.6096115708351135,0.4885844375592015,0.8637365020008059,0.09876120007041997,0.07410038469142043
1709731093027502800,24.7955029296875,0.5135635137557983,3.391144037246704,0.5031917095184326,-0.05373276770114899,-0.8552919030189514,0.515352725982666,-0.4560023546218872,-0.39376193284988403,0.6823248863220215,0.4840226142557606,0.8641344482549974,0.10463281943460677,0.08969788677564904
1709731093037521700,24.805521728515625,0.2355814278125763,3.427701473236084,0.2947828769683838,-0.07483925670385361,-0.8530804514884949,0.5163844227790833,-0.4385427236557007,-0.4910510182380676,0.7742192149162292,0.4803451153999877,0.8635979482754008,0.1113139520660303,0.10524427631121339
1709731093047540700,24.815540771484375,-0.023402737453579903,3.4128522872924805,0.0946924015879631,-0.09417948126792908,-0.8524084687232971,0.5143247246742249,-0.4366433024406433,-0.5948265790939331,0.8398622870445251,0.4778370599601888,0.862009665136671,0.11875059842019019,0.12045477191856914
1709731093057559800,24.825559814453126,-0.20456400513648987,3.340102434158325,-0.14357849955558777,-0.11135195940732956,-0.8530430793762207,0.5098218321800232,-0.46805477142333984,-0.6991724967956543,0.8911486268043518,0.4762869835362926,0.8595484969115867,0.1268357610798249,0.1350548608552178
1709731093067579000,24.835578857421876,-0.21065278351306915,3.243382692337036,-0.3912375569343567,-0.12575949728488922,-0.8545153141021729,0.5039723515510559,-0.5121647119522095,-0.8287426829338074,0.9077250361442566,0.47528757367054425,0.8564896962127441,0.1356892458883223,0.1487130122963973
1709731093077598500,24.845598388671874,-0.11279493570327759,3.1309993267059326,-0.6658473014831543,-0.13728870451450348,-0.8560260534286499,0.4983688294887543,-0.5624183416366577,-0.9349896907806396,0.9386124610900879,0.4741487010162705,0.853256523784775,0.14538817414430058,0.16124103444768287
1709731093087617500,24.855617431640624,-0.021273542195558548,3.059565782546997,-0.9651660919189453,-0.14564134180545807,-0.8575499653816223,0.49335232377052307,-0.5981941223144531,-1.0296417474746704,0.9714455604553223,0.4728185016257633,0.8498864873405455,0.15610610661662078,0.17252954274009322
1709731093097636600,24.86563671875,-0.02025727927684784,3.021833658218384,-1.371669888496399,-0.15054333209991455,-0.8592949509620667,0.48882386088371277,-0.624954104423523,-1.1603124141693115,0.9799566268920898,0.47139994872504487,0.8462291455988709,0.16825028977357614,0.18267491964955937
1709731098312241400,30.080241455078124,-0.14756835997104645,3.0251047611236572,-1.8063135147094727,-0.15158167481422424,-0.8620526790618896,0.4836205244064331,-0.6438590288162231,-1.298088550567627,0.9876168370246887,0.47054991950343106,0.8418345674219292,0.18200226670713496,0.19176212980549
1709731098322260200,30.09026025390625,-0.349916934967041,3.099421739578247,-2.323199987411499,-0.14842866361141205,-0.8663299679756165,0.47690778970718384,-0.6629574298858643,-1.3282958269119263,1.0193841457366943,-0.5040709275823873,-0.8593333982557284,-1.850780555512692e-17,-0.08636267578420467
1709731098332280000,30.100280029296876,-0.6213417649269104,3.2552835941314697,-2.7767059803009033,-0.14119310677051544,-0.872349739074707,0.46804937720298767,-0.6641504764556885,-1.3009138107299805,1.033857822418213,-0.5071728946160843,-0.8565463208310807,-0.018790756188871143,-0.09354626921506687
1709731098342299100,30.110299072265626,-0.8365054726600647,3.474930763244629,-3.2862532138824463,-0.1302056461572647,-0.8798846006393433,0.45700040459632874,-0.6921515464782715,-1.2952098846435547,1.048340082168579,-0.511306016811376,-0.8525859090043542,-0.03996842974595822,-0.10032879659017743
1709731098352318200,30.120318115234376,-0.9247620701789856,3.634965181350708,-3.750227928161621,-0.11469148099422455,-0.8882803916931152,0.4447515308856964,-0.6845333576202393,-1.2545725107192993,1.0906028747558594,-0.5160249994014499,-0.8475297357179699,-0.06378963411292835,-0.10650102635458021
1709731098362337300,30.130337158203126,-0.6358504295349121,3.871424436569214,-4.045396327972412,-0.09650789201259613,-0.8959296941757202,0.4335854649543762,-0.7031594514846802,-1.2046563625335693,1.101921558380127,-0.5201173383254443,-0.8418888093544201,-0.08953188518224495,-0.11262892329950577
1709731098372357000,30.140357177734376,-0.28218263387680054,4.012354850769043,-4.441126823425293,-0.0753544420003891,-0.9015235304832458,0.426117867231369,-0.7617579698562622,-1.1924397945404053,1.077894926071167,-0.5224248855047411,-0.8362325355452562,-0.1173630465571536,-0.11837687843096559
1709731098382376200,30.150376220703127,-0.015303266234695911,4.220424652099609,-4.967453956604004,-0.05034150928258896,-0.9050963521003723,0.42221635580062866,-0.8136873841285706,-1.294351577758789,0.9828739166259766,-0.5231423194637491,-0.8302474736912773,-0.147639127100262,-0.12334518757854036
1709731098392395300,30.160395263671877,0.10609026998281479,4.456462383270264,-5.707720756530762,-0.020325222983956337,-0.9067458510398865,0.42118731141090393,-1.0113061666488647,-1.4583512544631958,0.9793099761009216,-0.522680906219037,-0.8232829971452624,-0.18110429963151548,-0.12732240462501804
1709731098402414300,30.170414306640627,-0.012225717306137085,4.623133659362793,-6.55544376373291,0.016167545691132545,-0.9066190719604492,0.421640545129776,-1.161599040031433,-1.5014621019363403,1.0497491359710693,-0.5218363275438331,-0.8143843742207686,-0.21817050144085803,-0.1298717455224351
1709731098412433200,30.18043310546875,-0.16564376652240753,4.708338737487793,-7.4808197021484375,0.060047414153814316,-0.904352068901062,0.4225415885448456,-1.3399088382720947,-1.3732051849365234,1.1537522077560425,-0.5212184390039701,-0.8026932504308347,-0.2587553740967303,-0.13061573036532861
1709731098422453200,30.190453369140624,-0.22765494883060455,4.584752559661865,-8.306259155273438,0.11168043315410614,-0.8984243869781494,0.42468908429145813,-1.55777108669281,-1.2088143825531006,1.2931451797485352,-0.5206279004307209,-0.7880175430142466,-0.30227948760253415,-0.12884855107160714
1709731098432472300,30.200472412109374,-0.11883072555065155,4.181768894195557,-9.012202262878418,0.17037419974803925,-0.8869921565055847,0.4292052090167999,-1.8432867527008057,-1.1192485094070435,1.4824156761169434,-0.5196900778091454,-0.7706337737105989,-0.3474567423031904,-0.12377178691211989
1709731098442491400,30.210491455078124,0.20913143455982208,3.5381288528442383,-9.67065715789795,0.23578721284866333,-0.8678348064422607,0.4373413622379303,-2.1424338817596436,-1.0383847951889038,1.6657317876815796,-0.5179698328515298,-0.7510597650999362,-0.3931665105455747,-0.11417838236323195
1709731098452510200,30.22051025390625,0.5483638644218445,2.6458160877227783,-10.291815757751465,0.30740827322006226,-0.8389624357223511,0.4490453004837036,-2.3844804763793945,-0.8803061842918396,1.7928367853164673,-0.5154229094229598,-0.7295761485210681,-0.43845330279768857,-0.09907770858373668
1709731098462529300,30.230529296875,0.8854726552963257,1.498452067375183,-10.896905899047852,0.3849056363105774,-0.7989739179611206,0.46204814314842224,-2.605501890182495,-0.6381904482841492,1.8578217029571533,-0.5127801508945279,-0.7060158974281688,-0.48225058404668986,-0.07766923295389876
1709731098472549000,30.240549072265626,1.177303433418274,0.14357440173625946,-11.377960205078125,0.4674636423587799,-0.7464572787284851,0.47358137369155884,-2.7957563400268555,-0.25781524181365967,1.8901879787445068,-0.5106603115202969,-0.6802894584101057,-0.5234471687906334,-0.049349398384017196
1709731098482568200,30.250568115234376,1.2750749588012695,-1.346777319908142,-11.645133972167969,0.552847683429718,-0.681601881980896,0.47935160994529724,-2.97537899017334,0.11481428146362305,1.8734161853790283,-0.5100123154499824,-0.6522344788149592,-0.5605943184054846,-0.014544095689439665
1709731098492587300,30.260587158203126,1.3058656454086304,-2.9160256385803223,-11.736662864685059,0.6385773420333862,-0.6055816411972046,0.47485804557800293,-3.1459014415740967,0.4610503315925598,1.7812302112579346,-0.5117628918487153,-0.6216247106721102,-0.5924624341999091,0.025881202729486075
1709731098502606000,30.270606201171876,1.46018385887146,-4.454587936401367,-11.694390296936035,0.7219903469085693,-0.5192458033561707,0.4572892189025879,-3.276296377182007,0.8891189694404602,1.6084911823272705,-0.5160031510639037,-0.5886615239152309,-0.6181603560410422,0.07138649917062082
1709731098512626200,30.280626220703127,1.7066311836242676,-5.957284927368164,-11.466123580932617,0.7998415231704712,-0.42372849583625793,0.42509725689888,-3.332632541656494,1.3183207511901855,1.3044862747192383,-0.5222121736710053,-0.5538377566592035,-0.6370340394553419,0.12143238609275492
1709731098522645200,30.290645263671873,1.601022720336914,-7.166200160980225,-11.335328102111816,0.8688701391220093,-0.32170647382736206,0.37625741958618164,-3.3330118656158447,1.6991784572601318,0.972649872303009,-0.5305175644221947,-0.5165903773282742,-0.6490478383090933,0.17442017590244369
1709731098532664300,30.300664306640623,1.8964866399765015,-8.245514869689941,-10.965797424316406,0.9255743026733398,-0.21517620980739594,0.31146690249443054,-3.2804479598999023,2.0970120429992676,0.7651320695877075,-0.5401376540691217,-0.47686402799156913,-0.6544724243373633,0.22916795992454914
1709731098542683100,30.31068310546875,1.797362208366394,-9.104783058166504,-10.454236030578613,0.9666245579719543,-0.10843149572610855,0.23211908340454102,-3.157741069793701,2.4886348247528076,0.5701726078987122,-0.550455102734674,-0.4358621455629798,-0.6527508956590109,0.28449872225468825
1709731098552702200,30.3207021484375,1.087517261505127,-9.661239624023438,-10.337240219116211,0.9900779128074646,-0.003795346710830927,0.14046837389469147,-2.9432029724121094,2.5607564449310303,0.11915983259677887,-0.561866171626621,-0.39152386613906154,-0.6457114267946428,0.3377458309873884
1709731098562722300,30.330722412109374,-0.10592611134052277,-9.530231475830078,-10.351422309875488,0.9939988255500793,0.09990880638360977,0.044550202786922455,-2.699733018875122,2.673177719116211,-0.3400520086288452,-0.572985064991342,-0.342219842840971,-0.6365223324621941,0.3865398726382632
1709731098572741400,30.340741455078124,-1.1217108964920044,-9.2747802734375,-10.291492462158203,0.9783386588096619,0.20161856710910797,-0.046940337866544724,-2.4428162574768066,2.8251452445983887,-0.8265796899795532,-0.5826586097056882,-0.2886142634816842,-0.6270818437519367,0.4289278482523679
1709731098582760400,30.350760498046874,-1.560189962387085,-8.37478256225586,-10.276958465576172,0.9443854093551636,0.30231162905693054,-0.12939730286598206,-2.1068763732910156,2.723201036453247,-1.3544132709503174,-0.58899572019551,-0.23256462781264023,-0.617426143241568,0.46667182150246855
1709731098592779300,30.360779296875,-1.8378090858459473,-6.5491414070129395,-9.561290740966797,0.8973117470741272,0.39712801575660706,-0.19266723096370697,-1.7475926876068115,2.3877077102661133,-1.9539545774459839,-0.5897902231715305,-0.17864879720214866,-0.6097138632349306,0.49847861678487315
1709731098602798300,30.37079833984375,-2.1442291736602783,-4.077937126159668,-8.946560859680176,0.8454123735427856,0.4818549156188965,-0.23042067885398865,-1.2794487476348877,2.042940616607666,-2.3258843421936035,-0.5836743015032689,-0.1314317857485293,-0.6062304406536633,0.52396051215959
1709731098612818200,30.380818115234376,-1.097979187965393,-3.153151512145996,-9.375642776489258,0.7896127104759216,0.5603814125061035,-0.24996905028820038,-0.7764139175415039,1.681302547454834,-2.162445545196533,-0.571080098187673,-0.08931242943793094,-0.6058372412581677,0.5466736548685085
1709731098622837200,30.390837158203126,1.3048498630523682,-3.3689966201782227,-9.55494499206543,0.7240130305290222,0.6329585909843445,-0.27416878938674927,-0.4484546184539795,1.1145694255828857,-1.9954845905303955,-0.5534723414820074,-0.051847783574301705,-0.6001894833022589,0.5751110682430915
1709731098632856000,30.40085595703125,5.06451940536499,-4.092967987060547,-8.811277389526367,0.6517367362976074,0.6875168681144714,-0.3202492296695709,-0.26788681745529175,0.2137434482574463,-1.377214789390564,-0.5368412006977508,-0.02149524252493176,-0.5825919210263077,0.6098573366810733
1709731098642875100,30.410875244140627,11.00853157043457,-3.512530565261841,-7.939136981964111,0.5784286856651306,0.7106966972351074,-0.40041255950927734,-0.34724295139312744,-0.5721622705459595,-0.13482007384300232,-0.5209839963236146,-0.0060709229903286146,-0.5475005608668125,0.6548143377785655
1709731098652895200,30.420895263671873,17.53367042541504,-1.8680320978164673,-5.609655380249023,0.5184953808784485,0.6826123595237732,-0.5149785876274109,-0.7254503965377808,-0.29061412811279297,1.7445317506790161,-0.5034604280265969,-0.016127694695973784,-0.49218959337995116,0.7099415335780006
1709731098662914300,30.430914306640624,22.108564376831055,-2.8261220455169678,-3.4012203216552734,0.47791990637779236,0.5871003270149231,-0.6533803343772888,-1.1831812858581543,0.8122832179069519,2.7516775131225586,-0.48857188427152615,-0.04816193416507679,-0.4135096806866945,0.766803613175648
1709731098672933400,30.440933349609374,24.400659561157227,-4.2728776931762695,-0.5586603879928589,0.4406737983226776,0.4272206127643585,-0.7894865870475769,-0.9575043320655823,0.14190161228179932,3.755566358566284,-0.47897885413468905,-0.08651425677057731,-0.31268510939063593,0.8156730218854955
1709731098682952200,30.4509521484375,22.748388290405273,-5.163300514221191,1.7996283769607544,0.4025017023086548,0.2230445295572281,-0.8878307938575745,-0.28427666425704956,-1.154486894607544,4.320737838745117,-0.4752879536007394,-0.12450953933182832,-0.20144971576490084,0.8473585878278954
1709731098692971300,30.46097119140625,16.537063598632812,-5.419887542724609,3.6766796112060547,0.3569314777851105,0.030604494735598564,-0.9336290955543518,-0.35229289531707764,-1.0829575061798096,3.8520097732543945,-0.47737788855510827,-0.15112053012308843,-0.10172533665194627,0.8596073527397092
1709731098702990800,30.470990966796876,9.700543403625488,-4.860579967498779,4.576674461364746,0.306190550327301,-0.10578915476799011,-0.9460740089416504,-1.1763536930084229,-0.9505005478858948,2.6449570655822754,-0.4869362722993735,-0.16144418511788444,-0.02997964839941124,0.8578636767605559
1709731098713010000,30.481010009765626,5.388664722442627,-4.378363609313965,4.682143688201904,0.25607141852378845,-0.18931102752685547,-0.9479392170906067,-1.6782974004745483,-0.882054328918457,0.8042319416999817,-0.5008529781196507,-0.16046210645086278,0.01680177070461919,0.8503622634939788
1709731098723029000,30.491029052734376,2.7905917167663574,-4.636415958404541,4.898796081542969,0.2030716836452484,-0.23767870664596558,-0.9498792886734009,-1.6857377290725708,-1.1125258207321167,-0.4141191244125366,-0.5173380975655384,-0.15064827942162723,0.04863577500412173,0.8410118245891002
1709731098733047800,30.5010478515625,2.0413243770599365,-5.399488925933838,5.127747058868408,0.14280256628990173,-0.2689017951488495,-0.9525225758552551,-1.0577195882797241,-0.4144631028175354,-0.3324200510978699,-0.5350549478523948,-0.13443944164509844,0.07526456022282471,0.8306487961358094
1709731098743067000,30.51106689453125,1.686903476715088,-6.515084266662598,5.395508289337158,0.07108400017023087,-0.2923305630683899,-0.9536718130111694,-0.44400888681411743,0.8566462993621826,0.08784234523773193,-0.5530083991516132,-0.11255228175767477,0.10245040866328586,0.8191565437644016
1709731098753086700,30.521086669921875,1.4958361387252808,-7.5012102127075195,5.528224945068359,-0.01245035883039236,-0.3088522255420685,-0.9510285258293152,-0.33755582571029663,1.5434560775756836,0.36255812644958496,-0.5704262012452869,-0.0851543821978898,0.1312800932263678,0.806305252450417
1709731098763105800,30.531105712890625,1.9042388200759888,-8.254047393798828,5.4987382888793945,-0.10490376502275467,-0.3216239809989929,-0.9410383701324463,-0.4507756233215332,1.9299460649490356,0.7382032871246338,-0.5860706974673442,-0.05431394465942953,0.16288282862520184,0.7918586887650405
1709731098773124900,30.541124755859375,2.237272262573242,-8.625164985656738,5.516028881072998,-0.20200347900390625,-0.33269959688186646,-0.9211435914039612,-0.659309446811676,2.065655469894409,1.112366795539856,-0.5996630752352705,-0.022335273087787034,0.19730517366988107,0.77522629678503
1709731098783143700,30.551143798828125,2.16558575630188,-8.471589088439941,5.487358093261719,-0.2985951006412506,-0.33896347880363464,-0.8921573758125305,-0.8891032934188843,1.9981889724731445,1.5940310955047607,-0.6115252640899224,0.00981292455928156,0.23200221801812504,0.7563832278353116
1709731098793163800,30.561163818359375,2.408156394958496,-7.529734134674072,5.492609024047852,-0.3878088891506195,-0.3396996557712555,-0.8568596243858337,-1.1202630996704102,2.0031213760375977,2.0513482093811035,-0.6222102607664876,0.039827591780332745,0.26454478555995903,0.7357202625043234
1709731098803182800,30.571182861328126,3.1276021003723145,-6.0687994956970215,5.858710289001465,-0.4642224609851837,-0.3386975824832916,-0.8184017539024353,-1.4784655570983887,1.8389569520950317,1.8239712715148926,-0.6340493413331356,0.0637115000015303,0.2945164775673316,0.712167396694041
1709731098813202000,30.581201904296876,3.7037241458892822,-4.86788272857666,5.808043003082275,-0.5276175737380981,-0.33688968420028687,-0.7798237204551697,-1.821213722229004,1.1016602516174316,1.302727222442627,-0.647439529695009,0.08084115088366801,0.32179626551113927,0.6861005792767684
1709731098823220700,30.591220703125,4.656386375427246,-4.825372219085693,5.499011516571045,-0.5832321643829346,-0.33690401911735535,-0.7391453385353088,-1.793461561203003,0.3984732925891876,1.2639410495758057,-0.6603474090991239,0.09288280201816627,0.34899872496138606,0.6584176893617409
1709731098833239800,30.60123974609375,5.695364952087402,-5.287347316741943,5.203507423400879,-0.6374498605728149,-0.34138351678848267,-0.6907350420951843,-1.4274762868881226,0.49365100264549255,1.1370089054107666,-0.6708666327234754,0.10159078575426518,0.3798839079261265,0.6287332063244339
1709731098843260000,30.611260009765626,5.488958835601807,-5.391780376434326,5.247330665588379,-0.6911610960960388,-0.3446836769580841,-0.6352081298828125,-1.036484718322754,0.7149840593338013,0.7270660996437073,-0.6791871754551155,0.10913619936530317,0.4128985773363511,0.5969159478049274
1709731098853279000,30.621279052734376,4.690357208251953,-4.61368989944458,5.200514316558838,-0.7400330305099487,-0.33792194724082947,-0.5815151929855347,-0.9535552263259888,0.5786141157150269,0.6454647779464722,-0.6864571804472059,0.11783140260443706,0.4419934150432427,0.565273552824909
1709731098863297800,30.6312978515625,4.152313709259033,-3.334946393966675,5.370637893676758,-0.7796608805656433,-0.322640985250473,-0.5366858839988708,-1.2417473793029785,0.365121454000473,0.6957587599754333,-0.694611749651068,0.1254261041798671,0.464677679269306,0.5346564791434426
1709731098873316900,30.64131689453125,3.5630249977111816,-2.604207992553711,5.807226657867432,-0.8122629523277283,-0.298026978969574,-0.5014068484306335,-1.7637715339660645,0.02933502197265625,0.6718475818634033,-0.7047400418906367,0.13279030797940145,0.4813141506748986,0.5040286694743417
1709731098883336700,30.651336669921875,3.276360034942627,-2.448824882507324,6.017620086669922,-0.841264009475708,-0.2654104232788086,-0.4709905683994293,-2.0867602825164795,-0.11883631348609924,0.693662166595459,-0.7154557266023988,0.14135374488169222,0.4944935091686589,0.4728829685928206
1709731098893355800,30.661355712890625,3.3552403450012207,-2.4704246520996094,5.924477577209473,-0.8673176765441895,-0.22922712564468384,-0.44183143973350525,-1.9910807609558105,0.029214933514595032,0.5476053953170776,-0.7254237251489851,0.1500814251185138,0.5065173767404559,0.4412211671113623
1709731098903374800,30.671374755859375,3.698322296142578,-2.514281988143921,5.603333473205566,-0.8902551531791687,-0.19341087341308594,-0.4123564660549164,-1.675403356552124,0.06874661147594452,0.37875667214393616,-0.7340079324724672,0.15738959350510395,0.5187005675475954,0.4091583021441956
1709731098913393700,30.6813935546875,4.059613227844238,-2.3190481662750244,5.392910480499268,-0.9096543788909912,-0.1595240980386734,-0.3835115134716034,-1.3659193515777588,0.05582541227340698,0.4167299270629883,-0.7415162664501114,0.16218514807988446,0.5309804294393573,0.37670875616631033
1709731098923412700,30.691412841796875,3.828127861022949,-1.9525455236434937,5.483112812042236,-0.9253432154655457,-0.12447025626897812,-0.3581157326698303,-1.299891710281372,0.2292371690273285,0.4182659685611725,-0.7488336724239326,0.16572229760843574,0.5417363263932746,0.34395619457625276
1709731098933432800,30.701432861328126,2.584923267364502,-1.5895426273345947,5.7829694747924805,-0.9373570084571838,-0.08315816521644592,-0.3382995128631592,-1.3743953704833984,0.4594247043132782,0.44068604707717896,-0.7560158627301179,0.17182660039277017,0.5489315587147394,0.31239362529090453
1709731098943452000,30.711451904296876,1.832133173942566,-1.4454838037490845,5.598287105560303,-0.9457461833953857,-0.036262452602386475,-0.32287663221359253,-1.4376462697982788,0.40798187255859375,0.4831702411174774,-0.7623504075803722,0.18164008363975725,0.552782565589791,0.28330238279556114
1709731098953470700,30.721470703125,1.456066370010376,-0.9751123785972595,5.589067459106445,-0.9504081010818481,0.011317688040435314,-0.3107995390892029,-1.4870918989181519,-0.0011552795767784119,0.4335870146751404,-0.7679157353232406,0.19248507524944863,0.554571656118929,0.25633021935560424
1709731098963489800,30.73148974609375,1.3449299335479736,-0.820253312587738,5.527390480041504,-0.9509650468826294,0.0604407973587513,-0.30333542823791504,-1.3989341259002686,-0.3383490741252899,0.46185898780822754,-0.7738069726285778,0.2036864839146926,0.5539351057735599,0.22997932550577332
1709731098973510000,30.741510009765626,1.5537816286087036,-0.990477442741394,5.053220748901367,-0.9493193030357361,0.10662441700696945,-0.29567548632621765,-1.2123322486877441,-0.15626119077205658,0.500051736831665,-0.7784534061336806,0.21394421370644437,0.5535251832878695,0.204567738856973
1709731098983529000,30.751529052734377,2.6257164478302,-0.8400596976280212,4.746673107147217,-0.9457767605781555,0.1470133364200592,-0.2896435856819153,-1.0844050645828247,0.3058675527572632,0.3089154362678528,-0.7828656603168573,0.22031440932919794,0.553750643260437,0.17872651137471335
1709731098993548000,30.761548095703127,3.428835868835449,-0.6626628637313843,4.402786731719971,-0.9404162168502808,0.18142062425613403,-0.287582665681839,-1.0079021453857422,0.5999057292938232,0.28337129950523376,-0.7879649791115474,0.22155581385102657,0.5541856105593465,0.15133541856755725
1709731099003566800,30.77156689453125,3.4599311351776123,-0.3870997130870819,4.020600318908691,-0.9336965084075928,0.21083931624889374,-0.28940871357917786,-0.9432870149612427,0.5959539413452148,0.37836751341819763,-0.7932428000168791,0.21977425011857551,0.5540712262586789,0.12437874402545028
1709731099013586000,30.7815859375,2.5922067165374756,-0.09787124395370483,3.979198694229126,-0.9253981113433838,0.23890386521816254,-0.2942159175872803,-0.9708114266395569,0.6201506853103638,0.39866235852241516,-0.7982200294260245,0.21867917222073924,0.5523327394525969,0.09976262420435385
1709731099023605800,30.791605712890625,1.6866774559020996,-0.04240984842181206,4.050691604614258,-0.915305495262146,0.26962876319885254,-0.29919278621673584,-1.0689778327941895,0.592645525932312,0.40333402156829834,-0.8022121091378651,0.22129631417914494,0.549027815994919,0.07779607076584481
1709731099033624800,30.801624755859375,0.8083416223526001,-0.32588985562324524,4.156045436859131,-0.9040558934211731,0.30321773886680603,-0.30123427510261536,-1.1212890148162842,0.30756115913391113,0.34757521748542786,-0.8045497294058902,0.22749261097266102,0.5455547428539204,0.05759320321715695
1709731099043643600,30.8116435546875,0.11582785844802856,-0.6979955434799194,4.1998114585876465,-0.8921271562576294,0.3396167457103729,-0.2979426085948944,-1.1008081436157227,-0.06372249126434326,0.2466883361339569,-0.8046444565693894,0.23732788622685133,0.5428666200279318,0.0389712713345309
1709731099053662700,30.821662841796876,-0.01856510527431965,-0.9932900667190552,3.985835313796997,-0.8798876404762268,0.37616071105003357,-0.29034605622291565,-1.0994518995285034,-0.12794595956802368,0.10885804891586304,-0.8029454923575302,0.24856460206726014,0.5413340999555972,0.021250223309773508
1709731099063681800,30.831681884765626,0.6035911440849304,-0.5553507804870605,3.7993481159210205,-0.8670800924301147,0.40921100974082947,-0.28410977125167847,-1.2390446662902832,0.09159773588180542,-0.0043270885944366455,-0.8012729808005348,0.25808115409805704,0.5397584898044047,0.004053586367842367
1709731099073702000,30.841701904296876,0.9820420145988464,-0.14326652884483337,3.933387279510498,-0.8514274954795837,0.44015854597091675,-0.28518661856651306,-1.4841587543487549,0.25449779629707336,0.09173572063446045,-0.8014932736295545,0.2650922761707106,0.5358477209482542,-0.014201049617888263
1709731099083721000,30.851720947265626,0.9776440858840942,-0.34018146991729736,3.535479784011841,-0.8348835706710815,0.46928632259368896,-0.28764501214027405,-1.720810890197754,0.21937334537506104,0.16417095065116882,-0.8017379258344387,0.27129907909130174,0.5315771782713709,-0.032229376779067176
1709731099093739800,30.86173974609375,1.2787346839904785,-0.4655863046646118,3.141390562057495,-0.8201354146003723,0.4934541583061218,-0.28962162137031555,-1.8070158958435059,0.18681320548057556,0.004114478826522827,-0.801500716513501,0.2754801323361624,0.5284882986331079,-0.04906363053301267
1709731099103758800,30.8717587890625,1.151980996131897,-0.44342267513275146,3.115781545639038,-0.8056861758232117,0.515215277671814,-0.2922719419002533,-1.6948630809783936,0.08402788639068604,-0.006968110799789429,-0.8011460972054885,0.2785212319373826,0.5256329013585508,-0.06558080648987298
1709731099113779000,30.881779052734377,0.7098983526229858,-0.4153120517730713,2.868757724761963,-0.7910561561584473,0.5366498231887817,-0.29366183280944824,-1.5345969200134277,-0.21580320596694946,0.18518707156181335,-0.8001995874796538,0.2826029724684288,0.5227854673888808,-0.08069494278008842
1709731099123798000,30.891798095703123,0.4492127597332001,-0.364448606967926,2.6383256912231445,-0.7772318124771118,0.5564291477203369,-0.29376420378685,-1.5188345909118652,-0.34219568967819214,0.3087330758571625,-0.7988112204710793,0.2872565703461763,0.5201937703132421,-0.09371664378356875
1709731099133816800,30.90181689453125,0.17550291121006012,-0.3793717920780182,2.577066421508789,-0.7634091973304749,0.575792670249939,-0.29269322752952576,-1.594775676727295,-0.3431417942047119,0.32412633299827576,-0.7970013500941395,0.2926823682749141,0.5176779061274195,-0.10552523959697287
1709731099143836000,30.9118359375,0.14036250114440918,-0.4707765281200409,2.4026756286621094,-0.7499951720237732,0.594355583190918,-0.29025623202323914,-1.5446367263793945,-0.3835858702659607,0.33198899030685425,-0.7947097024105492,0.29838298196903906,0.5155962427726027,-0.11646697152691594
1709731099153854700,30.921854736328125,0.2511257827281952,-0.43639713525772095,2.386092185974121,-0.7368664145469666,0.6115458607673645,-0.28816574811935425,-1.4042162895202637,-0.4175608158111572,0.35710495710372925,-0.7924029610006682,0.30342346699050227,0.5136645972690842,-0.12720219973710434
1709731099163874800,30.931874755859376,0.05304836109280586,-0.4174330532550812,2.3062174320220947,-0.7234209179878235,0.6284001469612122,-0.28596368432044983,-1.3049449920654297,-0.47990167140960693,0.31646600365638733,-0.7899627604877935,0.30860304760288565,0.511646674229293,-0.13762457925575947
1709731099173894000,30.941893798828126,0.07993936538696289,-0.36590322852134705,2.1378705501556396,-0.7104015350341797,0.6441697478294373,-0.283504843711853,-1.2271595001220703,-0.51640784740448,0.22143208980560303,-0.7874687351711833,0.3137866165351009,0.5096916075693342,-0.1471236921184488
1709731099183912700,30.95191259765625,0.1221613883972168,-0.35786792635917664,2.0403459072113037,-0.6977788209915161,0.6586142182350159,-0.28165915608406067,-1.1408441066741943,-0.5219565033912659,0.15166959166526794,-0.7851328268177654,0.3184249909602452,0.5077164047520614,-0.1561918905461281
1709731099193931800,30.961931884765626,0.16280095279216766,-0.3365061283111572,1.850987195968628,-0.6857468485832214,0.6717731356620789,-0.2801283001899719,-1.0404034852981567,-0.5647175312042236,0.0275496244430542,-0.7828878652901519,0.3225689883886491,0.505850863884693,-0.16477428987858778
1709731099203951900,30.971951904296876,0.2705194056034088,-0.20536835491657257,1.644293189048767,-0.6747137308120728,0.6830248832702637,-0.279710978269577,-0.9466545581817627,-0.5555529594421387,-0.08714079856872559,-0.7810658999668875,0.32587867564336287,0.5039321372164084,-0.17260207315005735
1709731106057105700,37.825105712890625,-2.7707085609436035,6.333261489868164,-5.7798848152160645,0.1868615597486496,-0.7830687165260315,0.5931999087333679,-0.7793450951576233,-0.702572762966156,1.8973243236541748,-0.43870582008134207,-0.8925244581453872,-0.00020369104963303391,0.10458135824985268
1709731106067124500,37.83512451171875,-3.171236515045166,5.918415069580078,-6.465524673461914,0.19887307286262512,-0.7888140678405762,0.5815683007240295,-0.9824119210243225,-0.49493831396102905,2.1645100116729736,-0.4483700263352982,-0.8882394841676043,-0.04260009196377537,0.09044399627020795
1709731106077143600,37.8451435546875,-3.716782569885254,5.261195659637451,-7.272576332092285,0.22113387286663055,-0.7940805554389954,0.5661589503288269,-1.1725499629974365,-0.24682825803756714,2.4814484119415283,-0.4588034609795454,-0.8806107818575103,-0.08720169935960485,0.08012449798268152
1709731106087163600,37.85516357421875,-4.462589740753174,4.365594387054443,-7.944672584533691,0.255015105009079,-0.7987166047096252,0.5449942946434021,-1.2923991680145264,-0.039570629596710205,2.6976661682128906,-0.4711344836749597,-0.8687269430039208,-0.13345650622035163,0.07439804471452116
1709731106097182700,37.8651826171875,-5.187651634216309,3.310990810394287,-8.460883140563965,0.3003884553909302,-0.8015522956848145,0.5169922113418579,-1.4839669466018677,0.2570422291755676,2.8839173316955566,-0.48586905825485094,-0.8521501764903825,-0.1798226098529159,0.07372408060780468
1709731106107201500,37.87520141601563,-5.855655670166016,2.2536754608154297,-8.977728843688965,0.35641467571258545,-0.8007162809371948,0.48147860169410706,-1.7323760986328125,0.5838432312011719,2.998105049133301,-0.5031802621438598,-0.830580234538985,-0.22555659639219933,0.07791145420827948
1709731106117220600,37.885220703125,-6.222355365753174,1.0932804346084595,-9.412577629089355,0.4221712648868561,-0.7926686406135559,0.439826637506485,-1.8763186931610107,0.811208188533783,2.9854660034179688,-0.5220055059537436,-0.8043472145668336,-0.27007198334375376,0.08715959515127476
1709731106127239700,37.89523974609375,-6.455580711364746,-0.011701897718012333,-9.800585746765137,0.49548086524009705,-0.7751253843307495,0.3920198678970337,-1.9751713275909424,0.9500672817230225,2.9088680744171143,-0.5419571909114174,-0.7735506054937057,-0.312457033623291,0.10135354908668842
1709731106137259800,37.905259765625,-6.371525287628174,-0.9885554909706116,-10.104961395263672,0.5732243657112122,-0.7453065514564514,0.3404883146286011,-2.1370975971221924,1.0597443580627441,2.7452659606933594,-0.5615401667413508,-0.7389931660904476,-0.3523254959331296,0.12011920148652709
1709731106147278800,37.91527880859375,-6.541223049163818,-1.6888898611068726,-10.590031623840332,0.6524748802185059,-0.7020895481109619,0.2852133810520172,-2.2534422874450684,1.148988962173462,2.561847686767578,-0.5805747588757615,-0.7004032673403714,-0.3899255716113316,0.14256998945987226
1709731109603910000,41.37190991210937,-1.024985909461975,6.444267272949219,-3.4893949031829834,-0.10744386166334152,-0.8834083676338196,0.45611992478370667,-1.7791986465454102,-1.3510429859161377,1.8323321342468262,-0.5164055038116426,-0.8531171640039247,-0.01584527201944036,-0.07256273828887862
1709731109613929000,41.38192895507812,-1.4899495840072632,6.261909484863281,-4.200132369995117,-0.10171615332365036,-0.8931207656860352,0.4381650388240814,-1.9130085706710815,-1.3274447917938232,2.044271945953369,-0.5223473283405952,-0.846614023438412,-0.048241237907178984,-0.08983640202236831
1709731109623949000,41.39194897460938,-1.780077576637268,5.953766345977783,-4.914026737213135,-0.08689051121473312,-0.90450519323349,0.4175174832344055,-2.066979169845581,-1.3351037502288818,2.2432034015655518,-0.5295160564333041,-0.8377973231962033,-0.08279122749278367,-0.1041833610954013
1709731109633967900,41.4019677734375,-1.9209073781967163,5.490703582763672,-5.634279251098633,-0.06218106672167778,-0.9160501956939697,0.39621371030807495,-2.185102939605713,-1.3067281246185303,2.3831286430358887,-0.5372896831488025,-0.8270012255010128,-0.11906226016364355,-0.11494717887459964
1709731109643987000,41.41198706054688,-1.975548505783081,4.941162586212158,-6.397614002227783,-0.02682601474225521,-0.9262839555740356,0.3758695423603058,-2.227400541305542,-1.2699438333511353,2.3901824951171875,-0.5452689839621138,-0.8144641141178927,-0.1567896139149177,-0.12143631458956347
1709731109654006000,41.42200610351563,-1.9223159551620483,4.314663887023926,-7.152748107910156,0.019342191517353058,-0.9337869882583618,0.3573066294193268,-2.22031569480896,-1.1933342218399048,2.313927412033081,-0.553313123608369,-0.8002143149486867,-0.1957303402392074,-0.12325331859905767
1709731109664025000,41.43202514648438,-1.681172251701355,3.728712797164917,-7.8759260177612305,0.07573049515485764,-0.9365250468254089,0.34232383966445923,-2.1902172565460205,-1.0468275547027588,2.1932902336120605,-0.5607129571462969,-0.7846138402306567,-0.23567570072866603,-0.12016251376759471
1709731109674045200,41.442045166015625,-1.4656141996383667,3.198673963546753,-8.59147834777832,0.1412234753370285,-0.9329241514205933,0.3312225341796875,-2.2084689140319824,-0.8988171815872192,2.0786895751953125,-0.5672393911819764,-0.7675518390541953,-0.2765419406010918,-0.11237513991190518
1709731109684064000,41.45206396484375,-0.9263288378715515,2.6843883991241455,-9.300678253173828,0.21474476158618927,-0.9209486842155457,0.32517385482788086,-2.279960870742798,-0.8112900257110596,1.9936431646347046,-0.5722323868027941,-0.7491735475274653,-0.3183173252418949,-0.09981545606933735
1709731109694083000,41.4620830078125,-0.605747401714325,2.1567718982696533,-10.001716613769531,0.2948329448699951,-0.8987358212471008,0.32457274198532104,-2.416292905807495,-0.7697059512138367,1.9407622814178467,-0.5752711214487236,-0.7295320349081024,-0.3606513304811394,-0.08232102098945113
1709731109704102100,41.47210205078125,-0.4920317232608795,1.601315975189209,-10.815617561340332,0.38074854016304016,-0.8652865886688232,0.3260517418384552,-2.5720479488372803,-0.8051846027374268,1.8317393064498901,-0.5773747305403737,-0.7073389417014883,-0.40335777600027306,-0.06010458847883201
1709731109714122000,41.4821220703125,-0.3694901168346405,0.9212042689323425,-11.559976577758789,0.47114086151123047,-0.8188644051551819,0.32785239815711975,-2.713099479675293,-0.7180618047714233,1.7628304958343506,-0.578778379777386,-0.6819798775143893,-0.4459031772700502,-0.03300491483189222
1709731109724140300,41.492140380859375,-0.43984469771385193,0.17497935891151428,-12.239983558654785,0.5634950399398804,-0.7584155201911926,0.32753458619117737,-2.8623690605163574,-0.44834089279174805,1.689371943473816,-0.5798543584976648,-0.6529388072857417,-0.4872763211174995,-0.0012279637577107655
1709731109734159000,41.5021591796875,-0.48209068179130554,-0.684087336063385,-12.82876968383789,0.6550391912460327,-0.6832720637321472,0.32258790731430054,-2.988748788833618,-0.15815860033035278,1.6013163328170776,-0.5809401864109259,-0.6196651764724115,-0.5266013920662234,0.0348505895548922
1709731109744178200,41.51217822265625,-0.21079500019550323,-1.679678201675415,-13.193337440490723,0.7421764731407166,-0.5931819677352905,0.3119440972805023,-3.1398510932922363,0.1737331748008728,1.5706242322921753,-0.581682522192341,-0.5827223374217065,-0.5625004189279785,0.07532158716553748
1709731109754197200,41.522197265625,0.08386246860027313,-2.712745189666748,-13.43377685546875,0.8211621642112732,-0.48893922567367554,0.29433107376098633,-3.327479362487793,0.5399188995361328,1.5151628255844116,-0.5817234039354593,-0.5428568066399945,-0.593693541700853,0.12013419719239571
1709731109764217300,41.53221728515625,0.5015339851379395,-3.880918502807617,-13.563685417175293,0.8888114094734192,-0.3722612261772156,0.2672751247882843,-3.490083932876587,0.8884813785552979,1.3954445123672485,-0.5812237316861075,-0.5002214910697871,-0.6192059554405708,0.16894215902415147
1709731109774236200,41.54223608398438,1.1349788904190063,-5.1398186683654785,-13.496384620666504,0.9420179724693298,-0.24590089917182922,0.22833022475242615,-3.570298671722412,1.2502497434616089,1.252779245376587,-0.5802782838574017,-0.45544563399139887,-0.6377573119869191,0.22161213259490378
1709731109784255200,41.55225512695313,2.3703272342681885,-6.456353187561035,-13.157093048095703,0.9778751134872437,-0.11388883739709854,0.1754695326089859,-3.642883777618408,1.6452151536941528,1.0177829265594482,-0.5785431398080552,-0.41018699471814984,-0.6476738337843897,0.27848346661123174
1709731109794274300,41.5622744140625,3.5119965076446533,-7.57410192489624,-12.552506446838379,0.9940879940986633,0.017601359635591507,0.10714066028594971,-3.6637659072875977,1.985557198524475,0.6031253337860107,-0.5757648739823723,-0.3660897342993092,-0.6477257429251214,0.339005036771805
1709731109804294400,41.57229443359375,3.876739025115967,-8.487743377685547,-11.875433921813965,0.9896137714385986,0.14165806770324707,0.024445924907922745,-3.6175129413604736,2.139591932296753,0.07450723648071289,-0.5724091310093089,-0.32280479741947377,-0.6387644522323265,0.40015602858514066
1709731109814313500,41.5823134765625,2.0306499004364014,-9.460525512695312,-11.734572410583496,0.9640885591506958,0.2562711238861084,-0.06970265507698059,-3.5264968872070312,2.2437288761138916,-0.4025874733924866,-0.5710486298035057,-0.2749790803576227,-0.6241275331841789,0.45689699141403667
1709731109824332300,41.592332275390625,1.239392876625061,-9.21009349822998,-11.824597358703613,0.9160979390144348,0.36614635586738586,-0.16340576112270355,-3.46535325050354,2.6500279903411865,-0.8364112377166748,-0.5697852568764966,-0.21990234654909038,-0.6082269927794672,0.5069987002530727
1709731109834351400,41.602351318359375,1.4188052415847778,-7.561154842376709,-10.882783889770508,0.8513047695159912,0.464620441198349,-0.24373741447925568,-3.2675187587738037,3.2744696140289307,-1.2706822156906128,-0.563566891829147,-0.16702387274308295,-0.5918059801127662,0.5515985816391578
1709731109844371200,41.61237109375,1.5225849151611328,-6.076173782348633,-9.728882789611816,0.7806490063667297,0.544623076915741,-0.3065497577190399,-2.6148014068603516,3.1649105548858643,-1.8444055318832397,-0.553016185822259,-0.12166848286968154,-0.5761266422130078,0.5894471189352315
1709731109854390300,41.62239038085937,2.887138843536377,-4.693920612335205,-9.011832237243652,0.7083515524864197,0.6076436042785645,-0.3591756522655487,-1.624138355255127,2.782691478729248,-1.8109294176101685,-0.5388034023332026,-0.08428319660122909,-0.5597396911127505,0.6239219598056003
1709731109864409000,41.6324091796875,5.083413600921631,-3.867732048034668,-8.362039566040039,0.6370643973350525,0.6511660814285278,-0.41247016191482544,-0.8254799842834473,2.744936943054199,-1.0245263576507568,-0.5209782925774451,-0.05723368581528979,-0.5389705178996581,0.6594062962220039
1709731109874428200,41.64242822265625,7.877840042114258,-5.0269293785095215,-7.33380126953125,0.5657756924629211,0.6688218116760254,-0.48226049542427063,-0.3707379698753357,2.3068861961364746,-0.23351410031318665,-0.5041885560452259,-0.03884991691535182,-0.5073070370582307,0.697799481052363
1709731109884447200,41.652447265625,10.224420547485352,-6.261301517486572,-6.968424320220947,0.4877743721008301,0.6595694422721863,-0.5718777179718018,0.04556596279144287,0.7946845889091492,0.7983028292655945,-0.49098024844609434,-0.02304182505349508,-0.4620932943481204,0.7381578974544254
1709731109894467300,41.66246728515625,13.16934585571289,-7.28176212310791,-6.086335182189941,0.4035378694534302,0.6153818368911743,-0.6770984530448914,0.15322473645210266,-1.4060313701629639,1.8396350145339966,-0.47986530476504624,-0.011584114211465872,-0.4016423490434719,0.779922057484
1709731109904486400,41.672486328125,15.607014656066895,-8.3560209274292,-4.468153953552246,0.315096914768219,0.5284588932991028,-0.788317859172821,-0.49388426542282104,-1.7476210594177246,2.3305389881134033,-0.47222765442902376,-0.004802378324716793,-0.325296797809397,0.8192434490121133
1709731109914505200,41.682505126953124,16.939510345458984,-9.193363189697266,-2.8294475078582764,0.2237846851348877,0.400516152381897,-0.8885421752929688,-0.863814651966095,-0.8829991221427917,2.8448562622070312,-0.46912978033157315,-0.0013476199722850422,-0.23606585964343652,0.8509925335464564
1709731109924524300,41.692524169921874,16.43794059753418,-9.568404197692871,-1.3246936798095703,0.12956087291240692,0.24791155755519867,-0.9600801467895508,-1.237165927886963,-0.9381734728813171,3.278134346008301,-0.4691277570390003,0.001712521032832564,-0.14126927701459738,0.8717563396299524
1709731109934543400,41.70254345703125,13.117429733276367,-9.148797035217285,0.2784654200077057,0.03633735701441765,0.10169538110494614,-0.9941517114639282,-1.8723359107971191,-1.0383561849594116,3.083613872528076,-0.4715615414852139,0.008009646532992869,-0.0534788266974455,0.8801735555882276
1709731109944563500,41.7125634765625,9.041430473327637,-8.229385375976562,2.3319597244262695,-0.050417639315128326,-0.008040434680879116,-0.9986958503723145,-2.2622196674346924,-0.3481913208961487,2.266930103302002,-0.47879946549397145,0.020210371498728296,0.015608099902162947,0.8775528374605761
1709731109954582300,41.72258227539062,6.681427478790283,-7.038353443145752,3.827120304107666,-0.1279178261756897,-0.08236127346754074,-0.9883590936660767,-2.56394624710083,-0.0066280364990234375,0.8108383417129517,-0.4920224369389621,0.03541160894235809,0.0675757611072278,0.8672332034640063
1709731109964601300,41.73260131835937,5.398652076721191,-6.541993141174316,4.492340087890625,-0.19861172139644623,-0.1342298537492752,-0.9708427786827087,-2.4444241523742676,0.06872381269931793,-0.4126715660095215,-0.5083896175347004,0.05129750793445707,0.1093031012064165,0.8526203108394319
1709731109974620400,41.74262036132812,5.399101257324219,-7.000465393066406,4.9065046310424805,-0.27050185203552246,-0.17422261834144592,-0.94682377576828,-1.752920389175415,0.624280571937561,-0.48992854356765747,-0.5255368654094765,0.06898841632040355,0.14774545683453894,0.8349987085059908
1709731109984640300,41.75264013671875,6.336636066436768,-7.990109920501709,5.247004508972168,-0.35004833340644836,-0.2128881961107254,-0.9122197031974792,-1.0711705684661865,1.4510167837142944,-0.45147353410720825,-0.5425353473823862,0.08851561175744072,0.18988190393662138,0.813489577550647
1709731109994659300,41.762659423828126,7.212124824523926,-8.66347885131836,5.394166946411133,-0.4370730221271515,-0.2527041435241699,-0.8631962537765503,-0.5982968807220459,1.8384432792663574,-0.19239145517349243,-0.5582944701299515,0.10897512743754913,0.23775258294831206,0.7873406833332207
1709731110004678100,41.77267822265625,6.637763500213623,-8.496772766113281,5.559884548187256,-0.5239277482032776,-0.2845621109008789,-0.8028225898742676,-0.3699473738670349,1.8753061294555664,0.46239906549453735,-0.5724356667655978,0.1297714757608657,0.2859161980698648,0.7574487647092131
1709731110014697200,41.782697265625,6.632875442504883,-7.465272903442383,5.386642932891846,-0.6022911071777344,-0.30425891280174255,-0.7380189299583435,-0.5107613205909729,1.785566806793213,1.1572237014770508,-0.5849180796405812,0.14914429572604587,0.3297673726671142,0.7258651585131415
1709731110024716300,41.79271630859375,7.179123401641846,-6.139206409454346,5.38734245300293,-0.6670709252357483,-0.31893399357795715,-0.6732736825942993,-0.9606756567955017,1.3010048866271973,1.4571177959442139,-0.5975645077981526,0.1621741069872597,0.37021982164683576,0.6924980217287839
1709731110034736400,41.802736328125,7.881768226623535,-5.291717052459717,5.566944599151611,-0.7214300036430359,-0.32902801036834717,-0.6093268990516663,-1.3895013332366943,0.5648373365402222,1.6866891384124756,-0.6112100228742985,0.16936578817238845,0.4082300450798701,0.6565711617616848
1709731110044755200,41.81275512695313,8.244507789611816,-4.784393787384033,6.065818786621094,-0.769694447517395,-0.3326522409915924,-0.5448970794677734,-1.5302016735076904,0.58503258228302,1.614721417427063,-0.6259662804474598,0.17258499213928394,0.4447087486335282,0.6169397378111392
1709731110054774300,41.82277416992188,7.663676738739014,-4.198532581329346,6.574158668518066,-0.8138387203216553,-0.3238261342048645,-0.48249661922454834,-1.4909708499908447,0.9684795141220093,1.2113022804260254,-0.641351814854804,0.175223905814964,0.47754399721318197,0.5743831723974846
1709731110064793300,41.83279345703125,5.836646556854248,-3.653514862060547,7.071572303771973,-0.8530388474464417,-0.2976421117782593,-0.4286418855190277,-1.5216712951660156,0.7921794652938843,0.7825390696525574,-0.656741642975378,0.18082384775653737,0.5029729512687019,0.5319880561964695
1709731110074813400,41.8428134765625,3.815178155899048,-3.3591301441192627,7.431717872619629,-0.8873233199119568,-0.25407853722572327,-0.3848392963409424,-1.700918197631836,0.24606776237487793,0.5706762075424194,-0.6709256813631105,0.19228836509735145,0.5201975952484709,0.49221770022780736
1709731110084832500,41.85283251953125,2.220186471939087,-3.504216432571411,7.400937080383301,-0.9167595505714417,-0.1975783109664917,-0.3471522927284241,-1.8152809143066406,-0.22867591679096222,0.38014185428619385,-0.6825459734271226,0.21004004586628586,0.5313257324232048,0.45574894582835906
1709731110094851300,41.862851318359375,1.5026854276657104,-3.7004032135009766,7.1614670753479,-0.9407835006713867,-0.13585726916790009,-0.31059494614601135,-1.6497468948364258,-0.4612954258918762,0.28351062536239624,-0.6909220133828852,0.23116655969403674,0.5396893078261732,0.4218106467504191
1709731110104870400,41.872870361328125,1.3649028539657593,-3.8993027210235596,6.926763534545898,-0.9592899680137634,-0.07276380062103271,-0.27288854122161865,-1.3699336051940918,-0.3182426393032074,0.20167586207389832,-0.6965526871306986,0.2532845504617751,0.5471769987336923,0.3889197393006802
1709731110114890200,41.88289013671875,1.791631817817688,-3.869246244430542,6.650712013244629,-0.9720755219459534,-0.01094109658151865,-0.23441283404827118,-1.1752327680587769,0.11055050045251846,0.22455568611621857,-0.7005102666604343,0.27386374979742445,0.5547902591454477,0.3556567787933881
1709731110124909300,41.89290942382812,2.38263201713562,-3.2436375617980957,6.2570061683654785,-0.9786873459815979,0.04784644395112991,-0.19970421493053436,-1.1044882535934448,0.45270290970802307,0.25431543588638306,-0.7043784698227742,0.29079526475970663,0.5617704212584042,0.32202959653486185
1709731110134928100,41.90292822265625,3.4510343074798584,-2.4696924686431885,5.6065354347229,-0.9795857667922974,0.1006586030125618,-0.17401021718978882,-1.0973643064498901,0.5457800626754761,0.4011983871459961,-0.7097175680802786,0.3016796192486837,0.5674366007511119,0.28862788091774094
1709731110144947200,41.912947265625,4.313652992248535,-1.8140662908554077,5.411163806915283,-0.9763303399085999,0.14776188135147095,-0.15794093906879425,-1.1779816150665283,0.6683850288391113,0.6985598802566528,-0.7170476655213337,0.306155899248361,0.5720997222640574,0.25458398753978356
1709731110154966300,41.92296630859375,4.715191841125488,-1.1934928894042969,5.424659729003906,-0.9693503975868225,0.19373442232608795,-0.15108472108840942,-1.3617193698883057,0.8872439861297607,0.6680677533149719,-0.726143716829429,0.30720774706222065,0.5745267962359957,0.21967602136929548
1709731110164986400,41.932986328125,4.895002365112305,-0.5576002597808838,5.201106548309326,-0.9591516852378845,0.23795948922634125,-0.15298029780387878,-1.4821323156356812,0.9005445241928101,0.5611224174499512,-0.7364260574124264,0.3057566088116098,0.5744760606191566,0.184842143544338
1709731110175005400,41.94300537109375,4.321734428405762,0.04949343949556351,4.893488883972168,-0.9465250372886658,0.27853310108184814,-0.16281713545322418,-1.458733081817627,0.42564478516578674,0.5928098559379578,-0.7471249924980939,0.30297869809211603,0.5716601609329448,0.15235696791343534
1709731110185024300,41.953024169921875,3.3552181720733643,0.19709087908267975,4.843291759490967,-0.9317564964294434,0.3179134130477905,-0.1753886491060257,-1.3060212135314941,0.007892310619354248,0.6709789037704468,-0.7566236318247459,0.3024298520389271,0.5664290396802362,0.12334973755959164
1709731110195043300,41.963043212890625,2.792898654937744,0.28859513998031616,4.581226348876953,-0.9153250455856323,0.3561672568321228,-0.18794876337051392,-1.1765480041503906,0.0329928994178772,0.5496430993080139,-0.7645643310724108,0.30399522284440306,0.5600111828418304,0.0970342715935301
1709731110205063400,41.9730634765625,2.509575128555298,0.4389537572860718,4.009146213531494,-0.8985180854797363,0.3902110457420349,-0.2009986788034439,-1.0500444173812866,-0.1477641463279724,0.3162177801132202,-0.7714065382895164,0.3057699367930297,0.5531775567045482,0.07369677620853039
1709731110215082500,41.98308251953125,2.744645118713379,0.5628083944320679,3.5095713138580322,-0.882267415523529,0.4182184636592865,-0.21609607338905334,-0.8642077445983887,-0.330678790807724,0.39915579557418823,-0.777985753103166,0.3058461770134541,0.5462692364219236,0.05278483229552194
1709731110225101300,41.99310131835937,3.114297866821289,0.5549507737159729,3.2102386951446533,-0.866542637348175,0.44099074602127075,-0.23373261094093323,-0.7450295686721802,0.0047338008880615234,0.4914383292198181,-0.7847343766789308,0.3033469834856286,0.5395500951843667,0.032529755850228534
1709731110235120400,42.00312036132812,3.2475218772888184,0.4283894896507263,2.8654491901397705,-0.8516199588775635,0.4593483507633209,-0.252472847700119,-0.6823002696037292,0.38273850083351135,0.4403543472290039,-0.7912499214577198,0.2987939585033558,0.5333720461056382,0.01264882068243622
1709731110245139500,42.01313940429687,2.9485347270965576,0.21474428474903107,2.4783244132995605,-0.8383058905601501,0.4737756550312042,-0.26977744698524475,-0.6085476875305176,0.46897339820861816,0.43589991331100464,-0.7967780525608937,0.2934731108962192,0.528190127094841,-0.005783697548126055
1709731110255159300,42.0231591796875,2.418689489364624,0.04263085126876831,2.318199872970581,-0.8264718055725098,0.48622262477874756,-0.2837815284729004,-0.5706228613853455,0.39008966088294983,0.4833970069885254,-0.8008729408301098,0.28902593200690574,0.5239973743371662,-0.022210536317250607
1709731110265178000,42.03317822265625,1.9700430631637573,-0.20153015851974487,2.2285044193267822,-0.8154498338699341,0.49862316250801086,-0.2939668297767639,-0.5893810391426086,0.2655675411224365,0.4567781090736389,-0.8034918005140953,0.2861741707762454,0.5206927445871783,-0.03720617722760405
1709731110275197200,42.043197265625,1.6936445236206055,-0.37787359952926636,2.0707449913024902,-0.8054565787315369,0.5107113718986511,-0.3006884455680847,-0.6146330833435059,0.09715306758880615,0.3946368098258972,-0.804823172413094,0.2844119482394406,0.5184260940006673,-0.05102820919682889
1709731110285216300,42.05321630859375,1.6446940898895264,-0.4303027093410492,1.9448108673095703,-0.7963317036628723,0.5216825604438782,-0.306109756231308,-0.6379181146621704,-0.0443112850189209,0.33946549892425537,-0.8055792316827816,0.2827366062165341,0.5167253938065633,-0.06400797143518974
1709731110295236400,42.063236328125,1.2511664628982544,-0.6393673419952393,1.9202474355697632,-0.7877461314201355,0.5324621796607971,-0.30974164605140686,-0.6810342669487,-0.10062319040298462,0.33537647128105164,-0.8056330085266696,0.28161347810374454,0.5155802739079732,-0.07632947564565591
1709731110305255400,42.07325537109375,0.9787045121192932,-0.9997129440307617,1.7810115814208984,-0.7802330851554871,0.543697714805603,-0.30923929810523987,-0.7371923327445984,-0.1430172324180603,0.25813767313957214,-0.8043056650486841,0.28167584998328726,0.515789748166308,-0.08781754382564408
1709731110315274200,42.08327416992187,0.7486671209335327,-1.2740812301635742,1.580282211303711,-0.7745124697685242,0.5541155338287354,-0.30510079860687256,-0.795922040939331,-0.24214953184127808,0.09181344509124756,-0.8017812758101068,0.281977923092213,0.5176273273690933,-0.09847457960255261
1709731110325293300,42.09329321289062,0.4953693151473999,-1.3133710622787476,1.3659534454345703,-0.7702182531356812,0.5636584162712097,-0.2984171509742737,-0.8524775505065918,-0.4405810832977295,0.02417096495628357,-0.7984874824678686,0.28267166068653576,0.5204691759705412,-0.10782470918162403
1709731110335312400,42.1033125,0.37329187989234924,-1.093415379524231,1.1834431886672974,-0.7665554285049438,0.5721922516822815,-0.2915284335613251,-0.9145663380622864,-0.4841642379760742,0.13608717918395996,-0.795213620166181,0.2836030878402204,0.5232638601875931,-0.11575629500111125
1709731110345332500,42.11333251953125,0.4346684217453003,-0.7884387969970703,0.9706097841262817,-0.7630411982536316,0.5793760418891907,-0.2865159213542938,-1.049550175666809,-0.3361509442329407,0.2961900532245636,-0.7926337616019846,0.2843435802361064,0.5252530443636317,-0.12243181762574737
1709731110355351300,42.123351318359376,0.6942358613014221,-0.40020841360092163,0.8465933203697205,-0.7595381736755371,0.5845667123794556,-0.2852778732776642,-1.2575058937072754,-0.1850610375404358,0.3064113259315491,-0.7913123553994145,0.28407702608847757,0.525986026087846,-0.12831081208661735
1709731110365370400,42.133370361328126,0.8573331236839294,-0.13124139606952667,0.8262267708778381,-0.7552809119224548,0.5887467265129089,-0.2879720628261566,-1.4351028203964233,-0.13397377729415894,0.2721334397792816,-0.791206724887793,0.2830427195626588,0.5252625879408892,-0.1340816098581369
1709731110375389400,42.143389404296876,0.8636067509651184,0.04052839055657387,0.6431869268417358,-0.7510260343551636,0.5917770862579346,-0.29284733533859253,-1.4927024841308594,-0.24486851692199707,0.2929999530315399,-0.7918305703886427,0.28147671674269814,0.5237816183248196,-0.1393837856795887
1709731110385409300,42.1534091796875,0.9031882286071777,0.1524762362241745,0.5183712244033813,-0.7471232414245605,0.5936319231987,-0.29901155829429626,-1.4777759313583374,-0.37938326597213745,0.28860506415367126,-0.7929765784700455,0.27964332113321055,0.5218178202808756,-0.14385357304055701
1709731110395428400,42.16342846679687,1.0407508611679077,0.3107965588569641,0.42461010813713074,-0.7435986399650574,0.5942162871360779,-0.30654212832450867,-1.4488451480865479,-0.4085320830345154,0.3039023280143738,-0.7945853963584,0.2771438217711674,0.519538491413996,-0.14800389016626228
1709731110405447200,42.173447265625,1.1132043600082397,0.5906820297241211,0.39296963810920715,-0.7399103045463562,0.5937690138816833,-0.31618231534957886,-1.3879125118255615,-0.4134557843208313,0.27177920937538147,-0.7969067559444036,0.2741947295888513,0.5164553093366819,-0.15175923471332342
1709731110415466200,42.18346630859375,1.1883176565170288,0.6246298551559448,0.4921199083328247,-0.7352550625801086,0.5932084321975708,-0.3278775215148926,-1.3366899490356445,-0.4184037446975708,0.11568883061408997,-0.7998333258389765,0.27116684213391135,0.5123766000150111,-0.15558074233132138
1709731110425485300,42.1934853515625,0.9619977474212646,0.5577176809310913,0.6926615238189697,-0.7296654582023621,0.5940127968788147,-0.33872875571250916,-1.2809545993804932,-0.4519534707069397,-0.018830478191375732,-0.8023417412941667,0.2687826856837056,0.5083222355592061,-0.16003793016736606
1709731110435505400,42.20350537109375,0.6689049005508423,0.516574501991272,0.5561361908912659,-0.7240045666694641,0.5959164500236511,-0.34742042422294617,-1.0564976930618286,-0.6109005808830261,0.05439060926437378,-0.8042588564669072,0.26760344457841373,0.5046565086681682,-0.16394476718455608
1709731110445524200,42.213524169921875,0.5322173833847046,0.49345239996910095,0.3020820617675781,-0.7197244763374329,0.5968852639198303,-0.35457679629325867,-0.7764607667922974,-0.669776439666748,0.10738438367843628,-0.8059605387644574,0.26668497281723963,0.5015882086770613,-0.16648131038647496
1709731110455543300,42.223543212890625,0.5270580053329468,0.5602155923843384,0.19129936397075653,-0.7163888812065125,0.5967572927474976,-0.36147961020469666,-0.5869404077529907,-0.5809644460678101,0.13662609457969666,-0.8077736538257412,0.2656333916239243,0.4986974020917738,-0.16805179681777038
1709731110465562400,42.233562255859376,0.4777490496635437,0.580181896686554,0.11460006237030029,-0.7133703827857971,0.5959651470184326,-0.36868447065353394,-0.4456413984298706,-0.5066401362419128,0.11821144819259644,-0.8097606940710933,0.2644030982344453,0.49573053888183277,-0.16920347014884374
1709731110475582500,42.24358251953125,0.18776436150074005,0.5762620568275452,-0.006612652447074652,-0.7108904123306274,0.5950784087181091,-0.3748551607131958,-0.3074048161506653,-0.5213937163352966,0.1369096040725708,-0.8115962518217343,0.26362720690547337,0.49302446061039773,-0.16952578727177167
1709731110485601500,42.2536015625,-0.13633568584918976,0.5003872513771057,-0.17466159164905548,-0.7092923521995544,0.5944111943244934,-0.3789190948009491,-0.17536640167236328,-0.5452625751495361,0.1637853980064392,-0.8130662229087998,0.26382958725271266,0.4908506940335231,-0.168472138593145
1709731110495620400,42.26362036132812,-0.2590080797672272,0.2515501379966736,-0.3375628888607025,-0.709378182888031,0.5933520197868347,-0.3804153501987457,-0.06285375356674194,-0.501234769821167,0.209043949842453,-0.8139518446844736,0.264353287884162,0.48980573497542157,-0.1664030614988157
1709731110505639400,42.27363940429687,-0.3202810287475586,-0.07527192682027817,-0.4443037211894989,-0.7113475799560547,0.5916995406150818,-0.3793101906776428,0.01885807514190674,-0.417230486869812,0.19455677270889282,-0.8141087379951215,0.2646808848254965,0.4901927470395991,-0.1639574188401478
1709731110515659300,42.2836591796875,-0.21600042283535004,-0.32194721698760986,-0.555444061756134,-0.7150894999504089,0.5891602635383606,-0.37621399760246277,0.08265858888626099,-0.32654130458831787,0.14060309529304504,-0.8136442893211119,0.2643943709932841,0.491923388962511,-0.16152347715796667
1709731110525678300,42.29367822265625,-0.13475722074508667,-0.29498404264450073,-0.6646534204483032,-0.7199028134346008,0.5854045748710632,-0.3728824257850647,0.07257932424545288,-0.25679129362106323,0.09016761183738708,-0.8131066674603772,0.2633086888408344,0.49419360588076067,-0.15905553006016904
1709731110535697200,42.303697265625,-0.08202104270458221,-0.026172980666160583,-0.7564826607704163,-0.7246960401535034,0.5806505084037781,-0.37102648615837097,-0.03401672840118408,-0.2228928804397583,0.09375903010368347,-0.8131051386069498,0.26184092060344594,0.49590936036399913,-0.15611938225710834
1709731110545716200,42.31371630859375,-0.1405264288187027,0.3282298445701599,-0.8348645567893982,-0.7287407517433167,0.5752311944961548,-0.37154555320739746,-0.17906564474105835,-0.18393468856811523,0.15056774020195007,-0.8139656220392929,0.26039344769677103,0.49640959170274357,-0.15242306543358558
1709731110555735300,42.3237353515625,-0.2713558077812195,0.5919784903526306,-0.944938063621521,-0.7320787906646729,0.5694818496704102,-0.3738330602645874,-0.29561591148376465,-0.14589780569076538,0.22476992011070251,-0.8155377209844846,0.2593524680019981,0.4958021467907701,-0.147698461332116
1709731110565755400,42.33375537109375,-0.45828869938850403,0.7295334339141846,-1.060463309288025,-0.7352612018585205,0.5634968280792236,-0.37664613127708435,-0.3410632014274597,-0.12769049406051636,0.29133427143096924,-0.817441998727451,0.2588570621116149,0.494641236940302,-0.14181544667523768
1709731110575774500,42.3437744140625,-0.6182500720024109,0.7689736485481262,-1.1762425899505615,-0.738693356513977,0.5572354197502136,-0.3792373538017273,-0.32405078411102295,-0.13647419214248657,0.349467396736145,-0.8193975856535058,0.2587841151967856,0.4933681265511007,-0.1349309458593237
1709731110585793300,42.35379321289062,-0.8690484762191772,0.7779749035835266,-1.2803243398666382,-0.7425658106803894,0.5509694814682007,-0.38082608580589294,-0.28056639432907104,-0.18008935451507568,0.4025241434574127,-0.8211424128093968,0.2593317592690895,0.49227431123380994,-0.1270357260558102
1709731110595812400,42.36381225585937,-1.0427249670028687,0.8767783045768738,-1.3366035223007202,-0.7466667890548706,0.5447861552238464,-0.38170236349105835,-0.25832271575927734,-0.21818703413009644,0.45393750071525574,-0.8227262285991193,0.2605115443413618,0.4912051996068731,-0.11820596314916294
1709731110605832400,42.37383251953125,-1.318929672241211,1.1243274211883545,-1.2589603662490845,-0.7499530911445618,0.5394389033317566,-0.3828521966934204,-0.2929697632789612,-0.17463183403015137,0.4492127597332001,-0.8243936001653767,0.2626747522748416,0.4894648819072965,-0.10863306819238289
1709731110615851500,42.3838515625,-1.7751233577728271,1.4642120599746704,-1.1694846153259277,-0.751502513885498,0.5363729596138,-0.38411957025527954,-0.4048236012458801,-0.07140713930130005,0.2652689218521118,-0.8260861671812889,0.26681244763159695,0.4865709975058723,-0.09818999454636373
1709731110625870300,42.393870361328126,-1.9192932844161987,2.0066370964050293,-1.2501983642578125,-0.7513065338134766,0.5344110131263733,-0.38722532987594604,-0.5568904280662537,0.06722784042358398,0.16719359159469604,-0.8283510484123067,0.2723739123505779,0.4818711291263831,-0.08629752432451855
1709731110635889400,42.403889404296876,-2.2238779067993164,2.182035446166992,-1.2529467344284058,-0.7497174143791199,0.5330238938331604,-0.392185240983963,-0.6422045230865479,0.15110397338867188,0.3791237473487854,-0.8311004776937256,0.27875931481669747,0.47560552700950054,-0.07324334213294235
1709731110645909200,42.4139091796875,-2.5207550525665283,2.177553176879883,-1.27797269821167,-0.7478829026222229,0.5328951478004456,-0.39584600925445557,-0.5956228971481323,0.13612651824951172,0.49278509616851807,-0.8333154158899407,0.28639995151683456,0.46909707485689106,-0.05923310596949918
1709731110655928300,42.42392822265625,-2.8496994972229004,2.094769239425659,-1.2811278104782104,-0.7461917400360107,0.5340003967285156,-0.3975440561771393,-0.4587794542312622,0.11718368530273438,0.48662492632865906,-0.834739233454136,0.29518105154394575,0.4627052188964577,-0.04452291905266734
1709731110665947400,42.43394750976562,-3.193747043609619,2.0221762657165527,-1.326366901397705,-0.7450048327445984,0.5363039374351501,-0.3966684341430664,-0.34860777854919434,0.049923479557037354,0.5085000991821289,-0.8351597070448955,0.30520851679099453,0.4566328354342642,-0.029025788437859756
1709731110675966200,42.44396630859375,-3.477508783340454,2.0647878646850586,-1.3750156164169312,-0.7442265748977661,0.5394526124000549,-0.39384984970092773,-0.2982233166694641,0.005270957946777344,0.5670065879821777,-0.8347249205867905,0.316319967900529,0.45057379764275995,-0.012619787162775177
1709731110685985300,42.4539853515625,-3.6535675525665283,2.20230770111084,-1.42551589012146,-0.7434630393981934,0.5430611371994019,-0.39031678438186646,-0.2956756353378296,0.051848530769348145,0.6427429914474487,-0.8337483764144964,0.32816746529818863,0.4440132074755971,0.0046812321519018926
1709731291589328600,223.35732861328125,0.10045209527015686,0.04439929127693176,0.05996211618185043,-0.013996187597513199,-0.10216572135686874,-0.9946689009666443,-0.01507188193500042,0.01609092205762863,-0.0037288665771484375,-0.8263441498356965,-0.03838986759708554,0.03452181017751185,0.5607938582268667
1709731291599347500,223.36734741210938,0.06240671128034592,0.01841653697192669,0.04290829598903656,-0.013558011502027512,-0.1031779795885086,-0.9945704936981201,-0.006095388904213905,0.0091380774974823,-0.012189149856567383,-0.8264751933739188,-0.038942720458472156,0.034615214764060355,0.56055689276473
1709731291609366500,223.37736645507812,0.025979459285736084,0.01901920884847641,-0.001293520675972104,-0.01317624468356371,-0.10379757732152939,-0.9945111870765686,0.017265522852540016,-0.02420838177204132,-0.009196698665618896,-0.8265247013386009,-0.03931115626431697,0.034627338290010384,0.5604573939471481
1709731291619385600,223.38738549804688,-0.04424996301531792,-0.008300350047647953,-0.04301539808511734,-0.012978573329746723,-0.10377049446105957,-0.9945166110992432,0.01780027151107788,-0.011769033968448639,-0.011602163314819336,-0.8264561167380259,-0.03935112266463408,0.034542662012199035,0.5605610735934066
1709731291629404700,223.39740478515625,-0.0911271944642067,-0.03741801902651787,-0.054844893515110016,-0.013196178711950779,-0.10297605395317078,-0.9945963025093079,0.004193413071334362,-0.013463743031024933,-0.008974254131317139,-0.8263289250788166,-0.03895118852826968,0.03441884579933278,0.560783878620868
1709731291639423500,223.40742358398438,-0.10040058195590973,-0.04592975229024887,-0.07382737100124359,-0.013592904433608055,-0.10196077078580856,-0.9946955442428589,0.019131766632199287,-0.03321682661771774,0.0013788938522338867,-0.8261586279541968,-0.038406397757794565,0.034309971421334115,0.5610790952636585
1709731291649442600,223.41744262695312,-0.13356837630271912,-0.05494348704814911,-0.045162707567214966,-0.014149369671940804,-0.10069054365158081,-0.9948171973228455,0.024738889187574387,-0.0274680033326149,0.010396420955657959,-0.8260054259559134,-0.03771175760528321,0.034194095911630445,0.5613587162357594
1709731291659461400,223.42746142578125,-0.0937032625079155,-0.024013692513108253,-0.014032484963536263,-0.014628882519900799,-0.09943005442619324,-0.994937002658844,0.012675679288804531,-0.017131812870502472,0.012667715549468994,-0.8259348365967418,-0.03704798579207825,0.034043213048312385,0.5615159304422985
1709731291669480400,223.43748046875,-0.019333960488438606,0.0029795770533382893,0.03117014840245247,-0.014811269007623196,-0.09880661964416504,-0.9949964284896851,0.003718051128089428,-0.00805065780878067,0.02124154567718506,-0.8259682082491956,-0.036739258919086006,0.0339413602485968,0.5614933645743136
1709731291679499300,223.44749926757814,0.0686640739440918,0.04533688724040985,0.09420450776815414,-0.014665716327726841,-0.0989915058016777,-0.9949802160263062,-0.012739148922264576,0.007011540234088898,0.023895621299743652,-0.8261455721571347,-0.03686785138618061,0.033921404263019914,0.5612249944056968
1709731291689518300,223.45751831054687,0.13221322000026703,0.07764981687068939,0.08914849907159805,-0.014021418057382107,-0.10015904158353806,-0.9948726296424866,-0.022447165101766586,0.03260839730501175,0.020064890384674072,-0.8264005510095912,-0.037550398267823665,0.033965405269914234,0.560801518812801
1709731291699537400,223.46753735351564,0.10010694712400436,0.049847640097141266,0.02600521221756935,-0.01325545459985733,-0.10147211700677872,-0.9947500824928284,-0.027973871678113937,0.04588437080383301,0.005644857883453369,-0.8265596600557047,-0.03832204527211544,0.0340056674439572,0.5605124998625468
1709731291709556200,223.47755615234374,0.05277485400438309,0.020319843664765358,0.016096919775009155,-0.01294917892664671,-0.10225196927785873,-0.9946742653846741,-0.021428951993584633,0.024569489061832428,-0.008530080318450928,-0.8266161935450969,-0.038736386461962466,0.03409354440496278,0.5603952420620877
1709731291719575300,223.4875751953125,0.06788190454244614,0.03164765238761902,-0.029283344745635986,-0.012626806274056435,-0.102983757853508,-0.9946029186248779,0.012855610810220242,-0.019422225654125214,-0.00448155403137207,-0.8265753290816922,-0.03912933220673029,0.03416797446454064,0.5604236038056919
1709731291729594400,223.49759448242187,0.021829456090927124,0.026141036301851273,-0.04049977660179138,-0.012164688669145107,-0.10359854996204376,-0.9945448040962219,0.021838681772351265,-0.016839049756526947,-0.005928218364715576,-0.8264742797853146,-0.03950909197875098,0.03415598282216284,0.5605468462476507
1709731291739613400,223.50761352539064,-0.03579149767756462,-0.0021242648363113403,-0.05371890962123871,-0.011971023865044117,-0.10358873009681702,-0.9945482015609741,-0.0015178229659795761,-0.0028718188405036926,-0.010822892189025879,-0.826336545507056,-0.039551009073616354,0.0340827097512446,0.560751219277177
1709731291749632300,223.51763232421874,-0.06276905536651611,-0.020990364253520966,-0.05938824638724327,-0.012024953961372375,-0.10311843454837799,-0.9945964217185974,0.005585663951933384,-0.01693769544363022,0.006696641445159912,-0.826186068415673,-0.03933080297336814,0.0339836777130227,0.5609945031579626
1709731291759651300,223.5276513671875,-0.06897714734077454,-0.027648109942674637,-0.02713923156261444,-0.012290170416235924,-0.10240606218576431,-0.9946667551994324,0.018225761130452156,-0.026439130306243896,0.017448127269744873,-0.8260706466680805,-0.038952599881609574,0.03390159997294042,0.5611957010241236
1709731291769670400,223.53767041015624,-0.042854465544223785,-0.022595025599002838,0.016140330582857132,-0.012667634524405003,-0.10168220102787018,-0.9947362542152405,0.01449861191213131,-0.024080708622932434,0.023407578468322754,-0.8260678285959473,-0.038544909470224,0.033854859005031,0.5612308541621721
1709731291779689500,223.547689453125,-0.025902647525072098,0.0011136587709188461,0.0473824068903923,-0.012931007891893387,-0.10116064548492432,-0.9947860836982727,0.0008612275123596191,-0.002278663218021393,0.031651318073272705,-0.8261767447683698,-0.03826028213968465,0.03381004162858143,0.5610927272395043
1709731291789708300,223.55770825195313,-0.04031248018145561,0.004119568504393101,0.04502231255173683,-0.013031050562858582,-0.10072910040616989,-0.9948285222053528,-0.018661532551050186,0.03189673274755478,0.02925240993499756,-0.8263176502523696,-0.038060953812184134,0.03372076788643403,0.5609039814735747
1709731291799727400,223.56772729492187,-0.07787902653217316,-0.014150835573673248,0.03682350739836693,-0.013079690746963024,-0.10021602362394333,-0.9948797225952148,-0.023312600329518318,0.03403867036104202,0.025122642517089844,-0.8264429330291398,-0.037841125324477976,0.03358848215346127,0.5607422592802378
1709731291809746400,223.57774633789063,-0.07359853386878967,-0.007973898202180862,0.006429379805922508,-0.013141371309757233,-0.09953704476356506,-0.994947075843811,-0.011410098522901535,0.018345050513744354,0.020963311195373535,-0.826515825971171,-0.037545378945346396,0.03341866858965681,0.5606648059800852
1709731291819765200,223.58776513671876,-0.09712516516447067,-0.02132970467209816,-0.03858256712555885,-0.013233617879450321,-0.09871093183755875,-0.9950281381607056,-0.0020862864330410957,0.017930924892425537,0.017763733863830566,-0.8264793089287559,-0.037173271720815415,0.033227576629650764,0.56075493451763
1709731291829784300,223.59778442382813,-0.05869388207793236,-0.024725764989852905,-0.03791997209191322,-0.01343112625181675,-0.09798166155815125,-0.9950975775718689,-0.004757429473102093,0.008107416331768036,0.009334027767181396,-0.8263782696249474,-0.03680819518509447,0.03311141581910138,0.5609346257126824
1709731291839803400,223.60780346679687,-0.04645905643701553,-0.013684249483048916,-0.04872361943125725,-0.01349977683275938,-0.0976400226354599,-0.9951302409172058,0.0013536997139453888,-0.0020761415362358093,0.0037361979484558105,-0.8262653144346347,-0.03664003148162483,0.03305134407413422,0.5611155366612545
1709731291849822500,223.61782250976563,-0.029361294582486153,0.010428011417388916,-0.06629515439271927,-0.01338358223438263,-0.09742505103349686,-0.9951528906822205,-0.001112346537411213,0.00945814698934555,0.004842221736907959,-0.8261027086786071,-0.036573649075483154,0.032953481908947056,0.5613650772454083
1709731291859841300,223.62784130859376,-0.09682129323482513,-0.026459164917469025,-0.07157327234745026,-0.013384244404733181,-0.09682964533567429,-0.9952109456062317,-0.018964465707540512,0.020764611661434174,0.016207098960876465,-0.8259093376505989,-0.03631440883292569,0.032799039604646384,0.5616754148178028
1709731291869860400,223.6378603515625,-0.11707569658756256,-0.0492829903960228,-0.06703045219182968,-0.013791564851999283,-0.09562647342681885,-0.9953217506408691,-0.01507814135402441,-0.0027621760964393616,0.01833200454711914,-0.825735348678159,-0.03568926885543766,0.03264054587147526,0.5619804192597698
1709731291879879400,223.64787939453126,-0.12784871459007263,-0.03684575855731964,-0.05270664393901825,-0.014275707304477692,-0.09433312714099884,-0.9954383373260498,0.007973750121891499,-0.007076770067214966,0.013718366622924805,-0.8255898397441285,-0.03500685146503459,0.032486247168281794,0.5622459976269719
1709731291889898500,223.6578984375,-0.09533631801605225,-0.029188906773924828,-0.033112701028585434,-0.014601295813918114,-0.09311559051275253,-0.9955482482910156,0.007902608253061771,-0.014870837330818176,0.025348663330078125,-0.8254706762952992,-0.03440228047241985,0.0322856886772863,0.5624697342745085
1709731291899917300,223.66791723632812,-0.002570427255704999,0.00436047837138176,0.011358092539012432,-0.014726000837981701,-0.0926179513335228,-0.9955928325653076,-0.007200958207249641,-0.0074949488043785095,0.03476214408874512,-0.8254571400707237,-0.03415958870999541,0.03219803138344845,0.5625095447642792
1709731291909935400,223.67793530273437,0.00256148399785161,0.02417093515396118,0.025113053619861603,-0.014600592665374279,-0.09267653524875641,-0.9955891966819763,-0.012621164321899414,0.005167409777641296,0.039259910583496094,-0.8255105538317549,-0.03422229913424905,0.03215940559892561,0.5624295553442494
1709731291919954200,223.6879541015625,-0.030463578179478645,0.021528813987970352,0.019512958824634552,-0.014394989237189293,-0.09254521131515503,-0.995604395866394,-0.021325912326574326,0.01593085378408432,0.04290670156478882,-0.8255892239353928,-0.03423009347394353,0.03203262136955862,0.5623207670200605
1709731291929973200,223.69797314453126,-0.09558984637260437,-0.015478740446269512,-0.03899828717112541,-0.014325159601867199,-0.09196361899375916,-0.9956592917442322,-0.020602285861968994,0.004408709704875946,0.03235673904418945,-0.8255810976620049,-0.03400759192420496,0.03184059199643825,0.5623571030613859
1709731291939992300,223.70799243164063,-0.16984330117702484,-0.058481812477111816,-0.055512018501758575,-0.014739654026925564,-0.09052705019712448,-0.9957849383354187,-0.0027469974011182785,-0.024173244833946228,0.011501491069793701,-0.8254542574314844,-0.03328686612582393,0.03161530281786965,0.5625990550360934
1709731291950011100,223.71801123046876,-0.11008010804653168,-0.033737584948539734,-0.05831712484359741,-0.015198432840406895,-0.08914967626333237,-0.9959022998809814,0.020187977701425552,-0.04413583129644394,0.006598711013793945,-0.8253118960366015,-0.032577596278051985,0.03142550468086859,0.5628600166702752
1709731291960030200,223.7280302734375,-0.0976354256272316,-0.008232811465859413,-0.061228226870298386,-0.015319625847041607,-0.08817236125469208,-0.9959874153137207,0.019942961633205414,-0.04346519708633423,-0.004058361053466797,-0.8251580329048658,-0.03212910531213114,0.031209129041021823,0.5631233807619556
1709731291970049300,223.73804931640626,-0.07372503727674484,-0.004053778946399689,-0.0561266727745533,-0.015300145372748375,-0.08738081902265549,-0.9960574507713318,-0.018650738522410393,0.0015043839812278748,-0.018911361694335938,-0.8250038237437151,-0.03179753739846148,0.030986740716315915,0.5633803265381198
1709731291980068000,223.7480681152344,-0.05920467525720596,0.01275193877518177,-0.06449485570192337,-0.015245189890265465,-0.08684840798377991,-0.996104896068573,-0.028044072911143303,0.016947917640209198,-0.008732140064239502,-0.8248474295865716,-0.03158352389354741,0.030822706840695536,0.5636304405749608
1709731291990087200,223.75808715820312,0.34741127490997314,0.14710097014904022,-0.07224838435649872,-0.015468080528080463,-0.08797777444124222,-0.9960023164749146,-0.01227247528731823,0.004573255777359009,0.0010530352592468262,-0.8246658813734835,-0.03197921307595535,0.031243604813820536,0.5638504803332783
1709731292000106200,223.76810620117186,-0.10995867103338242,0.06233919784426689,-0.08397721499204636,-0.013247018679976463,-0.08863329142332077,-0.9959762096405029,-0.011289194226264954,-0.0009052678942680359,0.02437281608581543,-0.8243938664700527,-0.032863257494652215,0.03052686728844519,0.5642366112796922
1709731292010125300,223.77812524414063,-0.3153693377971649,-0.06606431305408478,-0.05199824273586273,-0.013407399877905846,-0.08665000647306442,-0.9961485862731934,-0.09897366166114807,-0.014408931136131287,0.09017324447631836,-0.8243519006232233,-0.03199326625198414,0.03003556125615325,0.5643741448717722
1709731292020144000,223.78814404296875,-0.4470538794994354,-0.0652097538113594,-0.15453501045703888,-0.01406653318554163,-0.08279970288276672,-0.9964669346809387,0.011350390501320362,0.11598758399486542,0.05791407823562622,-0.8240898630413571,-0.030197468356572093,0.029234366257281204,0.5648976288086877
1709731292030163200,223.7981630859375,-0.38088712096214294,-0.015127947553992271,-0.14245277643203735,-0.014396131038665771,-0.07866387814283371,-0.9967972636222839,0.0996621698141098,-0.097041055560112,0.023179709911346436,-0.8237414923610027,-0.028373908435175867,0.028218775628894258,0.5655516471710429
1709731292040182300,223.80818237304686,-0.16548797488212585,0.07932372391223907,-0.14409328997135162,-0.014066074974834919,-0.07591261714696884,-0.9970152378082275,-0.0028560003265738487,-0.09260541945695877,-0.0055024027824401855,-0.8233628892783846,-0.027310479456412882,0.027322336761268974,0.5661987993675905
1709731292050201300,223.81820141601563,0.006625734269618988,0.15602409839630127,-0.12935109436511993,-0.012723604217171669,-0.07530316710472107,-0.9970794916152954,-0.03117600828409195,0.05827438086271286,-0.043112099170684814,-0.823005613897996,-0.027421979001968407,0.02661356138074569,0.5667464077644575
1709731292060220200,223.82822021484375,-0.14071711897850037,0.10942745953798294,-0.1588757038116455,-0.011224892921745777,-0.07482776790857315,-0.9971333146095276,-0.07867997139692307,0.041685692965984344,-0.05058091878890991,-0.8226465565907061,-0.02763412076828816,0.025878720409350645,0.5672912006774029
1709731292070239200,223.8382392578125,-0.29657915234565735,0.03491460531949997,-0.20390549302101135,-0.010423926636576653,-0.07254308462142944,-0.9973108172416687,-0.07438450306653976,0.06900306046009064,-0.0289800763130188,-0.8221585940476721,-0.026896329170868497,0.024923575323310215,0.5680763376415474
1709731292080258300,223.84825830078125,-0.2763516306877136,0.05199611932039261,-0.18751932680606842,-0.00991275068372488,-0.06962968409061432,-0.9975236654281616,0.001688184216618538,-0.011592835187911987,-0.005589127540588379,-0.8216308978215439,-0.025817067702109717,0.023909218918549517,0.5689328437051139
1709731292090277400,223.85827734375,-0.217649444937706,0.12042471021413803,-0.13933156430721283,-0.009022833779454231,-0.06724847108125687,-0.9976954460144043,0.028477713465690613,-0.06821903586387634,0.009383738040924072,-0.8212007300491737,-0.025071301417023028,0.022884485481485327,0.5696289534149833
1709731292100296200,223.86829614257812,-0.2189815640449524,0.1878700703382492,-0.13722606003284454,-0.007360382471233606,-0.06502167880535126,-0.9978566765785217,-0.023630298674106598,0.003681369125843048,0.030922532081604004,-0.8208621139916185,-0.024614897657471636,0.021581329421052713,0.5701874024431616
1709731292110315300,223.87831518554688,-0.2819378972053528,0.20731966197490692,-0.19041657447814941,-0.0051459032110869884,-0.06271559745073318,-0.9980181455612183,-0.07586308568716049,0.055864423513412476,0.06602662801742554,-0.8204679453377804,-0.024283428142732856,0.020030695339425808,0.5708251630092035
1709731292120334300,223.88833422851562,-0.41676655411720276,0.11889084428548813,-0.2784130275249481,-0.003364004660397768,-0.05922585725784302,-0.9982389211654663,-0.07193820178508759,0.01900370791554451,0.08306258916854858,-0.8198451528779799,-0.02333677157287399,0.018328262756516757,0.5718158128081663
1709731292130353200,223.89835327148438,-0.4953764081001282,0.06939785182476044,-0.3322719931602478,-0.0022968079429119825,-0.054635584354400635,-0.9985037446022034,-0.031318385154008865,-0.03317873179912567,0.09275728464126587,-0.8190318401997247,-0.02173225507962374,0.01660871477267022,0.573095714838071
1709731292140372200,223.90837231445312,-0.5174438953399658,0.09029759466648102,-0.3887682855129242,-0.0013597895158454776,-0.04954981431365013,-0.9987707138061523,0.015092619694769382,-0.049144014716148376,0.10004335641860962,-0.8180526809848342,-0.0198887300489272,0.014801164803620532,0.5746087224762016
1709731292150391300,223.91839135742188,-0.49989259243011475,0.12679408490657806,-0.4430464208126068,-0.00008024083217605948,-0.04445409029722214,-0.9990113973617554,-0.0053214505314826965,-0.03597496822476387,0.09340232610702515,-0.8169079689940371,-0.018143295749527878,0.01284944705017057,0.5763393498999436
1709731292160410400,223.92841040039062,-0.4795510768890381,0.13432109355926514,-0.4756682813167572,0.0014219764852896333,-0.039528850466012955,-0.9992173910140991,-0.057711727917194366,0.001336120069026947,0.0681871771812439,-0.8156226223848172,-0.016537911614859405,0.010853047483518834,0.5782458827072645
1709731292170429200,223.93842919921875,-0.43698233366012573,0.15995241701602936,-0.5273005962371826,0.0030607841908931732,-0.03496095910668373,-0.9993839859962463,-0.06611017882823944,0.0038940832018852234,0.04923450946807861,-0.8142220194193417,-0.015125720322204305,0.00890037981476174,0.5802882206854457
1709731292180448300,223.9484482421875,-0.4167124629020691,0.2110998034477234,-0.6060723662376404,0.005093247629702091,-0.030659588053822517,-0.9995169043540955,-0.04528497904539108,-0.0028639603406190872,0.04738372564315796,-0.8126104746483278,-0.01394418333057406,0.0068633809858870045,0.5825998457446961
1709731292190467300,223.95846728515625,-0.39235252141952515,0.23689492046833038,-0.6630504131317139,0.007560227531939745,-0.026547830551862717,-0.9996189475059509,-0.043937262147665024,-0.01603943668305874,0.0592503547668457,-0.8107707999687629,-0.01297670224438263,0.004703997807229794,0.5852008919609845
1709731292200486400,223.968486328125,-0.3589535653591156,0.2208244502544403,-0.6337495446205139,0.010017754510045052,-0.02273995615541935,-0.9996912479400635,-0.05667921155691147,-0.035518087446689606,0.07606148719787598,-0.808888040077513,-0.012143289698174168,0.002632414936941455,0.5878313268816376
1709731292210506200,223.97850634765626,-0.35382458567619324,0.24374733865261078,-0.6323713660240173,0.012439804151654243,-0.019104672595858574,-0.9997401237487793,-0.05138031393289566,-0.02082756720483303,0.0892939567565918,-0.8070591756127032,-0.01138276434021837,0.0006195742619911621,0.5903605523971764
1709731292220525300,223.988525390625,-0.39283353090286255,0.25428861379623413,-0.679918110370636,0.01509139034897089,-0.015328106470406055,-0.9997686147689819,-0.05514579266309738,0.027352042496204376,0.08964288234710693,-0.8051361984795501,-0.010646378695415312,-0.0015307645994913162,0.5929923396750892
1709731292230544400,223.99854443359374,-0.4791297912597656,0.18805207312107086,-0.7120920419692993,0.01742454245686531,-0.01083337515592575,-0.9997894763946533,-0.08157257735729218,0.03340113162994385,0.08049321174621582,-0.8030651049709483,-0.009541753722504502,-0.003769638834986356,0.5958029946665377
1709731292240563500,224.0085634765625,-0.5458001494407654,0.16290128231048584,-0.6753036379814148,0.019190439954400063,-0.005562807898968458,-0.9998003840446472,-0.06757614016532898,-0.0008916514925658703,0.07722347974777222,-0.8010111917665484,-0.00797210354254597,-0.006021625459958082,0.5985659996036524
1709731292250582300,224.01858227539063,-0.5538508892059326,0.2185664027929306,-0.6688771843910217,0.0210613664239645,0.00010658444080036134,-0.999778151512146,-0.020008593797683716,-0.018325570970773697,0.06720679998397827,-0.7990089786305936,-0.006289446231401614,-0.008447088640836592,0.6012268186281929
1709731292260601300,224.02860131835936,-0.6049656867980957,0.2692013084888458,-0.7328135371208191,0.023537317290902138,0.006027341820299625,-0.9997047781944275,-0.03269267454743385,-0.001632804051041603,0.06424951553344727,-0.7969164156235159,-0.004706937337751914,-0.011200449708122428,0.6039673949234564
1709731292270620400,224.03862036132813,-0.7253525853157043,0.22541441023349762,-0.7910651564598083,0.02599436603486538,0.012831139378249645,-0.9995797276496887,-0.0815974771976471,0.021470624953508377,0.08077174425125122,-0.7945877378557974,-0.00279183639653218,-0.014224488298950072,0.6069763825437666
1709731292280639500,224.04863940429686,-0.8193249106407166,0.14833703637123108,-0.8059458136558533,0.027729827910661697,0.020853661000728607,-0.9993979334831238,-0.07094280421733856,0.0047353338450193405,0.08495396375656128,-0.7921423970117012,-0.00019936702078453795,-0.0173495093342621,0.610089724476781
1709731292290658300,224.058658203125,-0.8194594383239746,0.1184752807021141,-0.7658644318580627,0.028817908838391304,0.02932356670498848,-0.9991544485092163,-0.01021752879023552,-0.02918623760342598,0.07924789190292358,-0.7897051188565851,0.0027449116616005275,-0.020377194148650364,0.6131419374338745
1709731292300677400,224.06867749023436,-0.7808797955513,0.16020892560482025,-0.6876287460327148,0.02994014322757721,0.037536900490522385,-0.9988465905189514,0.013211628422141075,-0.032486241310834885,0.08547079563140869,-0.7874413418569742,0.00556187188491443,-0.02336142099323486,0.6159215561033708
1709731292310696400,224.07869653320313,-0.7406090497970581,0.21684451401233673,-0.6528651714324951,0.031563133001327515,0.04534508287906647,-0.9984726309776306,-0.01779979094862938,-0.008205190300941467,0.10134738683700562,-0.7853308634387975,0.008051343564473972,-0.026435983594678976,0.6184590642040814
