time,seconds_elapsed,rotationRateX,rotationRateY,rotationRateZ,gravityX,gravityY,gravityZ,accelerationX,accelerationY,accelerationZ,quaternionW,quaternionX,quaternionY,quaternionZ
1710515541297698300,0.0406982421875,-0.1196400374174118,-0.05609533563256264,-0.11137856543064117,-0.3307299315929413,0.4438440203666687,-0.8328386545181274,-0.004902452230453491,-0.028408139944076538,0.04572933912277222,0.9572980355000011,-0.23182123260677076,-0.1727413652326534,4.709695754380512e-17
1710515541307717400,0.05071728515625,-0.18491783738136292,-0.06831178069114685,-0.11144860833883286,-0.33177295327186584,0.4446881413459778,-0.831973135471344,-0.007811456918716431,-0.03552362322807312,0.03758537769317627,0.9570718328661837,-0.23242446784018156,-0.1731828698940711,-0.0005938508946464506
1710515541317737200,0.0607373046875,-0.21836794912815094,-0.06619015336036682,-0.12254839390516281,-0.3328704833984375,0.44601330161094666,-0.8308245539665222,-0.008361905813217163,-0.03507876396179199,0.03416323661804199,0.9567709907782205,-0.23331047456987156,-0.17364894497375968,-0.0012556760475914961
1710515541327756300,0.07075634765625,-0.205306738615036,-0.06519971787929535,-0.1190977394580841,-0.33397746086120605,0.4473589062690735,-0.8296560049057007,-0.0003121495246887207,-0.04579326510429382,0.03445953130722046,0.9564644007316171,-0.2342187669016939,-0.17410793297320035,-0.0019669294613164096
1710515541337776000,0.080776123046875,-0.14810842275619507,-0.08627587556838989,-0.0695008859038353,-0.3350527286529541,0.44850701093673706,-0.8286019563674927,-0.002837926149368286,-0.046437859535217285,0.02583712339401245,0.9561876775001696,-0.2349831676628217,-0.1745907844373793,-0.0024887185612920654
1710515541347822000,0.090822021484375,-0.10289514809846878,-0.10600723326206207,0.012591047212481499,-0.3359818458557129,0.44940996170043945,-0.8277360796928406,-0.00827181339263916,-0.024025291204452515,0.010704278945922852,0.9559646172397763,-0.2350557549274172,-0.175729225684207,-2.949651287236722e-17
1710515541357842200,0.10084228515625,-0.12357485294342041,-0.1291341781616211,0.04256412759423256,-0.3368431627750397,0.4504247307777405,-0.8268339037895203,-0.01362079381942749,-0.00297585129737854,-0.003549337387084961,0.9557284966034653,-0.23561091434447573,-0.17626842122385752,0.00018322596671977383
1710515541367861000,0.110861083984375,-0.12742339074611664,-0.1367654651403427,0.037427954375743866,-0.33779364824295044,0.4516110122203827,-0.8257984519004822,-0.026296466588974,0.007190406322479248,-0.005851268768310547,0.9554576271980424,-0.23625230029277683,-0.17687745710160763,0.00043215561472594304
1710515541377881000,0.120881103515625,-0.1410403996706009,-0.12040460109710693,0.01307600922882557,-0.3387567400932312,0.45276033878326416,-0.824773907661438,-0.02547067403793335,0.0031113922595977783,-0.001840353012084961,0.9551894433944803,-0.23689054910071336,-0.17747085143817046,0.0005906347571297862
1710515541387900200,0.130900146484375,-0.1965758353471756,-0.09725161641836166,-0.09830989688634872,-0.3398592174053192,0.45397213101387024,-0.823653519153595,-0.021804749965667725,0.0132826566696167,-0.010361313819885254,0.9548962492783467,-0.23763543588040978,-0.1780523591030155,0.00038683558894828926
1710515541397920300,0.140920166015625,-0.1974397599697113,-0.06784088909626007,-0.17058676481246948,-0.341219425201416,0.45507949590682983,-0.8224791884422302,-0.024060845375061035,0.016676634550094604,-0.020843446254730225,0.9545887657017774,-0.23843478673126442,-0.1786316067771959,-0.0003773933515087202
1710515541407939000,0.15093896484375,-0.19358724355697632,-0.0379684753715992,-0.2336869090795517,-0.3426017761230469,0.4558732807636261,-0.8214643001556396,-0.014942288398742676,-0.0006119012832641602,-0.0225449800491333,0.9543218378513857,-0.2391230435127291,-0.17913126628658943,-0.0014720960369338232
1710515541417959200,0.160959228515625,-0.20968657732009888,-0.04288845509290695,-0.21435928344726562,-0.34401634335517883,0.4565504491329193,-0.8204964995384216,-0.00531846284866333,-0.0021283328533172607,-0.01626485586166382,0.9540654764171264,-0.23977904582631412,-0.17960446825230797,-0.002726481801556236
1710515541427978000,0.17097802734375,-0.20024140179157257,-0.07133448123931885,-0.14792460203170776,-0.3453538715839386,0.4574814736843109,-0.819415271282196,0.0052353739738464355,-0.011329621076583862,-0.006924271583557129,0.9537786302574228,-0.24053241139590706,-0.18010139569382433,-0.0037419884534346513
1710515547128693800,5.87169384765625,-4.883305072784424,-3.4694557189941406,-5.56644344329834,0.9028595089912415,0.23768939077854156,-0.35825780034065247,-0.7671782374382019,1.2050139904022217,0.6267363429069519,0.8104771903093828,-0.24099531997452542,0.512632765686,0.14918381804557004
1710515547138713900,5.8817138671875,-4.945379734039307,-3.47232723236084,-5.566028594970703,0.8749444484710693,0.30536529421806335,-0.37579864263534546,-0.6809592247009277,1.2721190452575684,0.47069311141967773,0.8169309795498694,-0.2724284102220702,0.4877329563988875,0.14325986798608395
1710515547148733000,5.89173291015625,-4.945069313049316,-3.5584163665771484,-5.559784889221191,0.8425966501235962,0.372271865606308,-0.38915884494781494,-0.5878511071205139,1.1618468761444092,0.4108569920063019,0.8220331070442245,-0.3035483149094628,0.46182139207921036,0.1372626415856539
1710515547158753000,5.9017529296875,-4.942677021026611,-3.54775333404541,-5.450604438781738,0.8061336874961853,0.4373297691345215,-0.39861151576042175,-0.5700191855430603,1.052569031715393,0.4014497697353363,0.8258755253908446,-0.3339112769287738,0.4349683900948037,0.1312837024899119
1710515547168771800,5.911771728515625,-4.770211219787598,-3.4775736331939697,-5.373782157897949,0.7666124701499939,0.49954548478126526,-0.403435081243515,-0.5844834446907043,1.0485961437225342,0.3347858786582947,0.8282664532727282,-0.3632441811210325,0.4078432657166197,0.12526927351772282
1710515547178791700,5.921791748046875,-4.710415840148926,-3.447164535522461,-5.246603012084961,0.7244452238082886,0.5583662390708923,-0.40423569083213806,-0.5792730450630188,1.020521879196167,0.3809051513671875,0.8294161403119767,-0.3912489297767389,0.3805343968839084,0.11910893483967674
1710515547188810800,5.931810791015625,-4.63686466217041,-3.4497010707855225,-5.2121262550354,0.6798246502876282,0.614072322845459,-0.400941401720047,-0.5681149363517761,0.9275996685028076,0.39404451847076416,0.8292781753192913,-0.41833003898649007,0.3528870640094639,0.11299880616477041
1710515547198830800,5.941830810546875,-4.237752437591553,-3.4687137603759766,-5.120991230010986,0.6328247785568237,0.6659131050109863,-0.39508578181266785,-0.5778167843818665,0.9341694712638855,0.3229728937149048,0.8283666633158321,-0.44373195793655396,0.324898543262638,0.10654465513765168
1710515547208850000,5.951849853515625,-3.72070574760437,-3.4500746726989746,-4.979858875274658,0.5843425989151001,0.712294340133667,-0.38881975412368774,-0.5923991799354553,1.0104689598083496,0.2425033450126648,0.827329326627689,-0.466258942503304,0.29697259066620507,0.09968101315984519
1710515547218870000,5.9618701171875,-3.461702585220337,-3.441807985305786,-4.883509159088135,0.5348348021507263,0.7537723779678345,-0.38181060552597046,-0.5599659085273743,1.0004546642303467,0.13548803329467773,0.826037206447985,-0.48642720694882147,0.26922717373464794,0.09256418066691681
1710515549984244200,8.727244140625,-4.323338508605957,-3.041423797607422,-6.84010124206543,0.9816323518753052,-0.15799155831336975,-0.10694371163845062,-1.4866065979003906,0.6710379123687744,0.9985911846160889,0.7206804475524546,-0.06087634921495644,0.6654488827957257,0.18463953720628254
1710515549994264000,8.73726416015625,-4.486192226409912,-3.256849765777588,-6.882601261138916,0.9860300421714783,-0.08476090431213379,-0.14339017868041992,-1.4798195362091064,0.8817122578620911,1.0379520654678345,0.7354935112675075,-0.09668684104247884,0.6472685413894617,0.1753414379331891
1710515550004283100,8.747283203125,-4.761232852935791,-3.403691291809082,-6.869335651397705,0.9838917255401611,-0.00940247904509306,-0.17851896584033966,-1.415578007698059,1.0924255847930908,0.992911159992218,0.7493805570280612,-0.1329398702247924,0.6269509637544599,0.166398649331938
1710515550014303200,8.75730322265625,-4.959140300750732,-3.519386053085327,-6.838020324707031,0.9751417636871338,0.06746023893356323,-0.2110639065504074,-1.3457013368606567,1.233641505241394,0.8881422877311707,0.7619273736873868,-0.16975121031940282,0.6046921283475862,0.15811017115641532
1710515550024322300,8.767322265625,-5.020814895629883,-3.659621477127075,-6.749860763549805,0.9597931504249573,0.14469164609909058,-0.24054470658302307,-1.2845001220703125,1.3527296781539917,0.8126120567321777,0.7731233736237954,-0.20636284539495414,0.5806393229345069,0.1501760396778892
1710515550034342400,8.77734228515625,-5.056074619293213,-3.7917332649230957,-6.635680198669434,0.9380295872688293,0.2212071567773819,-0.2667734622955322,-1.218135118484497,1.4638210535049438,0.7187999486923218,0.7829729428903907,-0.24233239744440913,0.5548768176749886,0.1426192773818075
1710515550044361200,8.787361328125,-4.712560653686523,-3.8114330768585205,-6.504760265350342,0.9103625416755676,0.29582419991493225,-0.28935864567756653,-1.1148760318756104,1.5482158660888672,0.5757051706314087,0.791496915482494,-0.2768815170181007,0.5278800143154678,0.13495258643537766
1710515550054381000,8.797381103515624,-4.537034034729004,-3.807094097137451,-6.297029972076416,0.8777067065238953,0.3669244647026062,-0.3082166016101837,-0.973943829536438,1.515689730644226,0.47769615054130554,0.7987518935677639,-0.30917139368226104,0.5003046490433846,0.12690067308649094
1710515550064400100,8.807400146484374,-4.5264129638671875,-3.8406364917755127,-6.237752914428711,0.8404157161712646,0.4352169632911682,-0.3229362368583679,-0.8233105540275574,1.351236343383789,0.45207151770591736,0.8045479119803465,-0.340301560616657,0.47193933448410563,0.11904164703692001
1710515550074420200,8.817420166015625,-4.372602939605713,-3.7328476905822754,-6.1219401359558105,0.7989166378974915,0.5007290244102478,-0.33317095041275024,-0.7185790538787842,1.2422521114349365,0.3916122317314148,0.8088640634709265,-0.37033081338790635,0.4430232621563812,0.11101623705555545
1710515550084439300,8.827439208984375,-4.33367395401001,-3.629629611968994,-6.001086711883545,0.7542692422866821,0.5624607801437378,-0.3386976718902588,-0.6778683662414551,1.1595089435577393,0.30392301082611084,0.8116506508264435,-0.3989524693623021,0.4141112090589827,0.10282172918559414
1710515550094459400,8.83745947265625,-4.29996919631958,-3.6152944564819336,-5.945945739746094,0.7065343260765076,0.6209513545036316,-0.33945420384407043,-0.6634738445281982,1.0316824913024902,0.26297727227211,0.8128742228740597,-0.42677431112462205,0.38488515220009445,0.0946728240272833
1710515550104478200,8.847478271484375,-3.914816379547119,-3.6710877418518066,-5.800634860992432,0.6559821367263794,0.6751084923744202,-0.3375145196914673,-0.7020941972732544,0.9992995858192444,0.24327638745307922,0.8132000982437646,-0.45283049646824486,0.3552284888465436,0.08638824536133446
1710515550114498000,8.857498046875,-3.3365490436553955,-3.7055251598358154,-5.630000114440918,0.6034401655197144,0.7234259843826294,-0.33543261885643005,-0.7764595150947571,1.0604791641235352,0.1579577922821045,0.8134204283176032,-0.47583022151702214,0.3253756123165333,0.07787005266068628
1710515550124517000,8.86751708984375,-3.0243401527404785,-3.7964112758636475,-5.405742168426514,0.5497224926948547,0.7658966183662415,-0.333478182554245,-0.8077028393745422,1.1190521717071533,0.08799496293067932,0.8135833571526475,-0.49591441065271663,0.2955161583748701,0.06943581709789147
1710515550134537200,8.877537109375,-2.999093532562256,-3.7734484672546387,-5.194747447967529,0.4953639507293701,0.8036452531814575,-0.32980188727378845,-0.7964197397232056,1.1605579853057861,0.0740189254283905,0.8130821677303722,-0.5143322531915259,0.26563395036936954,0.06163281641615049
1710515550144556300,8.887556396484374,-2.940648078918457,-3.692265748977661,-5.0231451988220215,0.44118887186050415,0.8373367786407471,-0.3228307068347931,-0.7816277146339417,1.1427202224731445,0.05946415662765503,0.8114543428680328,-0.5317785580310239,0.23621220339211185,0.05438170276630341
1710515550154576400,8.897576416015625,-2.8441720008850098,-3.679224967956543,-4.873324394226074,0.3871802091598511,0.8671262264251709,-0.3133431077003479,-0.7570990324020386,1.0520634651184082,0.09918615221977234,0.8089600739016947,-0.5481108247865727,0.2071303376813379,0.04749026592086621
1710515550164595200,8.90759521484375,-2.6947617530822754,-3.6376190185546875,-4.720022201538086,0.33355653285980225,0.8929978609085083,-0.30215081572532654,-0.7644494771957397,0.997322142124176,0.05447030067443848,0.805854037011137,-0.5631272633091313,0.1783599764365576,0.04092532230444796
1710515550174614300,8.9176142578125,-2.3806874752044678,-3.5676286220550537,-4.558878421783447,0.280853271484375,0.9148409366607666,-0.2901509702205658,-0.8012542724609375,1.0866087675094604,-0.05640646815299988,0.802418700409558,-0.5765321449247208,0.15011731338333875,0.03463760104722139
1710515550184634000,8.927634033203125,-2.214279890060425,-3.4713640213012695,-4.366113185882568,0.22949999570846558,0.9327510595321655,-0.2780381143093109,-0.8118364810943604,1.1240116357803345,-0.16344422101974487,0.7988753741096848,-0.5881769196474372,0.12259224813892493,0.02858675314455726
1710515550194653200,8.937653076171875,-2.049365282058716,-3.2875633239746094,-4.1955718994140625,0.17996574938297272,0.9473604559898376,-0.2648029923439026,-0.8158758282661438,0.9881865382194519,-0.3504922091960907,0.7949122890918725,-0.5986359921574855,0.09609086353653151,0.022716753528249117
1710515550204673300,8.94767333984375,-1.827976107597351,-3.147500514984131,-3.987732410430908,0.13256502151489258,0.9587910771369934,-0.2512892186641693,-0.8035550117492676,0.8986766338348389,-0.4372023642063141,0.7907947854745151,-0.6077393035311558,0.07076954283639567,0.01697820431044062
1710515554501086500,13.24408642578125,-4.559358596801758,-2.4089982509613037,-4.760688304901123,0.876131534576416,0.3015950322151184,-0.37607717514038086,-0.32667773962020874,0.8008220791816711,0.2626281976699829,0.816244301513412,-0.272867494770607,0.48734458436012423,0.14759376933935983
1710515554511105500,13.25410546875,-4.4680376052856445,-2.420907497406006,-4.6646833419799805,0.8513501286506653,0.3595913052558899,-0.3819649815559387,-0.3002331256866455,0.7871525883674622,0.24672648310661316,0.8189323089355722,-0.3009314224049288,0.4673946734705319,0.14259214753179664
1710515554521125600,13.264125732421874,-4.2505717277526855,-2.4845855236053467,-4.531768321990967,0.8240753412246704,0.4150012731552124,-0.38558241724967957,-0.30773311853408813,0.7682568430900574,0.2407309114933014,0.8208961673934307,-0.32767936024365024,0.4470291089580257,0.13755276180757933
1710515554531144700,13.274144775390624,-4.040209770202637,-2.5821943283081055,-4.376255989074707,0.7945690751075745,0.4671783447265625,-0.3878202438354492,-0.3115520477294922,0.810440182685852,0.22485652565956116,0.8223948186387432,-0.3527456527610871,0.4262163487637339,0.13257826403228717
1710515554541164500,13.28416455078125,-3.9119784832000732,-2.7004282474517822,-4.248429298400879,0.7630361318588257,0.5163018107414246,-0.38885530829429626,-0.3017018437385559,0.86757892370224,0.23606914281845093,0.8234473183394809,-0.37638992414199085,0.40484932155408176,0.12791518184804088
1710515554551183400,13.294183349609375,-3.807178020477295,-2.7798011302948,-4.133866310119629,0.7296809554100037,0.5626752376556396,-0.38853874802589417,-0.2865504026412964,0.8376391530036926,0.267368882894516,0.8240192852636735,-0.3988355456460777,0.3829632216877012,0.12353809812502693
1710515554561202400,13.304202392578125,-3.737370252609253,-2.7971644401550293,-4.011485576629639,0.6949924230575562,0.606391191482544,-0.3863619267940521,-0.2717135548591614,0.7834100723266602,0.24639320373535156,0.8239530852078732,-0.42030567343872244,0.3607799599935488,0.11950934147107631
1710515554571222500,13.314222412109375,-3.7817511558532715,-2.792471408843994,-3.920013904571533,0.6593366861343384,0.6477165818214417,-0.3817574381828308,-0.25679445266723633,0.7399941682815552,0.16874486207962036,0.8230923671119583,-0.44106738261634,0.338497927214287,0.11574936204690493
1710515554581241600,13.32424169921875,-3.8168528079986572,-2.771056890487671,-3.8551063537597656,0.6227667331695557,0.6871200799942017,-0.37420302629470825,-0.2707464098930359,0.6723161339759827,0.1269497275352478,0.8212782844193692,-0.46152746213150414,0.31605519493465745,0.11226657144518669
1710515554591261700,13.33426171875,-3.703890085220337,-2.7243778705596924,-3.7960057258605957,0.5855679512023926,0.7242363095283508,-0.36413174867630005,-0.27741676568984985,0.6410133838653564,0.07928085327148438,0.8186738174536398,-0.48135192464669885,0.29365703905061985,0.10880741424245327
1710515563916414700,22.659414794921876,-5.5528669357299805,-3.787039041519165,-4.713996887207031,0.849075436592102,0.37398311495780945,-0.37310537695884705,-0.5832214951515198,1.2863258123397827,0.0664648711681366,0.8234172494846974,-0.2814016548006166,0.4840045648354418,0.09239463479959757
1710515563926433800,22.669433837890626,-5.449267864227295,-3.753674030303955,-4.658123970031738,0.8158177137374878,0.43397194147109985,-0.382243275642395,-0.5462101697921753,1.27199125289917,0.016688644886016846,0.8262709247380803,-0.3135052962470176,0.458903908097925,0.09164085222528844
1710515563936452900,22.679452880859376,-5.185654640197754,-3.7600514888763428,-4.603536605834961,0.7798482179641724,0.49154791235923767,-0.3875790238380432,-0.49598896503448486,1.1705920696258545,0.03745102882385254,0.8280049246820054,-0.34420465758071034,0.43328241001822715,0.09053954970910794
1710515563946473000,22.689472900390626,-4.929403305053711,-3.81986403465271,-4.523500919342041,0.7413428425788879,0.5460538864135742,-0.3901745080947876,-0.45217347145080566,1.0854617357254028,0.02140021324157715,0.8289515575816546,-0.3730866299518033,0.40708612330806027,0.08903225354309488
1710515563956492000,22.699491943359376,-4.648960590362549,-3.8721237182617188,-4.423533916473389,0.7006251811981201,0.5971627235412598,-0.3905397057533264,-0.44061535596847534,1.0936028957366943,-0.03945285081863403,0.8292392095343875,-0.40013215584169914,0.38029515326981655,0.08736350766594092
1710515563966511600,22.70951171875,-4.3047614097595215,-3.80784273147583,-4.304327011108398,0.6584392786026001,0.6443716883659363,-0.38889971375465393,-0.4281535744667053,1.1410746574401855,-0.13293546438217163,0.8289466137018898,-0.42508265184921584,0.35334810485136486,0.08542558984300652
1710515563976530700,22.71953076171875,-4.0599260330200195,-3.7026422023773193,-4.204302787780762,0.6154819130897522,0.6877049803733826,-0.385024756193161,-0.4053072929382324,1.0568325519561768,-0.25851452350616455,0.8280134088588904,-0.4480627724722562,0.3266915503410132,0.08310439386399021
1710515566721858000,25.464858154296873,-4.668167591094971,-1.2579619884490967,-4.609879493713379,0.9179055094718933,-0.3592284023761749,-0.16853724420070648,-0.4190192222595215,0.6462920308113098,0.49377840757369995,0.7338828361717513,0.057711704767010465,0.6421843499379628,0.21374014608754635
1710515566731876900,25.474876953125,-4.759177207946777,-1.3951654434204102,-4.712192535400391,0.931050181388855,-0.30738967657089233,-0.19661462306976318,-0.45044398307800293,0.7164626121520996,0.5613608360290527,0.7440855889221033,0.026743283547554876,0.63322782870176,0.21129132555667152
1710515566741897000,25.48489697265625,-4.801982879638672,-1.5225905179977417,-4.743196964263916,0.941267192363739,-0.2529255747795105,-0.2237071692943573,-0.502866804599762,0.7922627925872803,0.631101667881012,0.7539235734957827,-0.004514266185088707,0.6229976242668349,0.20845375395849844
1710515566751916000,25.494916015625,-4.945571422576904,-1.6345932483673096,-4.746963977813721,0.9481949806213379,-0.19645912945270538,-0.2496602088212967,-0.5583481192588806,0.8811668753623962,0.6202811002731323,0.7632293431978238,-0.03608760796366465,0.6114471177300965,0.20569675735539522
1710515566761936000,25.504935791015626,-4.97735071182251,-1.7420971393585205,-4.717451572418213,0.951716423034668,-0.13832911849021912,-0.2740459442138672,-0.5965527296066284,0.9871755838394165,0.5376111268997192,0.7718969549986758,-0.06781337115443849,0.598647124908227,0.20297348308301832
1710515566771955000,25.514954833984376,-4.973832607269287,-1.875327467918396,-4.659114360809326,0.951659083366394,-0.07938972860574722,-0.29671961069107056,-0.619398832321167,1.0848371982574463,0.4306918978691101,0.7799066014233103,-0.09922465969288136,0.5846320677323421,0.20026412651901235
1710515566781973800,25.524973876953126,-5.023144721984863,-2.0400054454803467,-4.625124931335449,0.9479364156723022,-0.019796164706349373,-0.3178441822528839,-0.6299125552177429,1.1336420774459839,0.26405709981918335,0.7873215803344455,-0.13031073429555207,0.5692951911400865,0.19760317244735354
1710515566791993900,25.534993896484377,-5.097598075866699,-2.1869802474975586,-4.571021556854248,0.9405158162117004,0.04031578451395035,-0.33734971284866333,-0.6163427233695984,1.1686838865280151,0.13835996389389038,0.794090315208253,-0.1612032247067226,0.5525745773557461,0.19518094480515907
1710515566802013000,25.545012939453127,-4.999241828918457,-2.320207357406616,-4.501969814300537,0.9294938445091248,0.10043926537036896,-0.3548993468284607,-0.5689131617546082,1.2139071226119995,0.10290047526359558,0.8001670678813995,-0.19160128908185486,0.534639392340109,0.19282793185905006
1710515566812033000,25.555032958984373,-4.824044704437256,-2.4480772018432617,-4.392622947692871,0.9150266051292419,0.15940265357494354,-0.3705635964870453,-0.4911373257637024,1.196264624595642,0.10736483335494995,0.8056520559879078,-0.22073768595415033,0.5157451689827601,0.19028087996476278
1710515566822052000,25.565052001953124,-4.7041015625,-2.547156810760498,-4.263823986053467,0.8974156379699707,0.21676671504974365,-0.38426217436790466,-0.4168857932090759,1.1428372859954834,0.10542318224906921,0.8104651099617657,-0.24867909439934402,0.49601171351070433,0.1878229254127799
1710515566832072000,25.575072021484374,-4.55702543258667,-2.5602240562438965,-4.10265588760376,0.8771716356277466,0.2720368206501007,-0.39568445086479187,-0.35538190603256226,1.1226623058319092,0.08670932054519653,0.8145388150359357,-0.2752786525512846,0.47579348564626034,0.18538869496005295
1710515566842090800,25.5850908203125,-4.40644645690918,-2.524998903274536,-3.9972124099731445,0.8548526763916016,0.32514211535453796,-0.4043634235858917,-0.293420672416687,1.0423506498336792,0.011999011039733887,0.8177426899171754,-0.3007032902031108,0.4554073164773566,0.18297216096097585
1710515566852111000,25.595111083984374,-4.31951904296875,-2.449211359024048,-3.9355289936065674,0.8307618498802185,0.37642738223075867,-0.41004571318626404,-0.25651246309280396,0.9230875372886658,-0.08299612998962402,0.8200588262832634,-0.3251820379919732,0.4350100952041403,0.1803514706972072
1710515566862130000,25.6051298828125,-4.158193111419678,-2.359006881713867,-3.902951955795288,0.8050780892372131,0.42604199051856995,-0.41272008419036865,-0.2605222463607788,0.816176176071167,-0.15876728296279907,0.8215361325099357,-0.34880009466968365,0.4147028392016026,0.17730982501131837
1710515566872149000,25.61514892578125,-4.105939865112305,-2.2578110694885254,-3.8839073181152344,0.7779892086982727,0.47395575046539307,-0.41243067383766174,-0.26674336194992065,0.7548041343688965,-0.2824239730834961,0.8221933209045802,-0.3716386954999043,0.39454954711752555,0.17382094768361717
1710515566882169000,25.625169189453125,-3.9222238063812256,-2.198699951171875,-3.884751081466675,0.7494471669197083,0.5203359127044678,-0.40936484932899475,-0.2570154666900635,0.7349894642829895,-0.4392677843570709,0.8220916304092881,-0.3938332730395636,0.3744501594772994,0.16984656694783312
1710515566892188200,25.635188232421875,-3.4813408851623535,-2.191620111465454,-3.794522285461426,0.719613254070282,0.563778817653656,-0.4053521454334259,-0.2596522569656372,0.7190887331962585,-0.48330432176589966,0.8218120827167665,-0.41428923016040226,0.35452553707757045,0.16523061773598807
1710515566902208000,25.6452080078125,-3.1157703399658203,-2.2477176189422607,-3.683656930923462,0.6887913346290588,0.6034422516822815,-0.4017762839794159,-0.25957679748535156,0.7088900804519653,-0.45709502696990967,0.8217173706061762,-0.4324610060354356,0.33479745865778865,0.1602150952082025
1710515569707651800,28.45065185546875,-4.608896255493164,-1.5938676595687866,-4.430314064025879,0.9248172044754028,-0.3783133625984192,-0.03990444913506508,-0.6093721389770508,0.2760794758796692,0.6240414977073669,0.7034154255083729,0.11483786090231551,0.6832715716271829,0.15861622623789076
1710515569717672000,28.460671875,-4.732923984527588,-1.6152864694595337,-4.455050468444824,0.9397923350334167,-0.334179550409317,-0.07151743024587631,-0.5972018837928772,0.396862655878067,0.6737514138221741,0.7147243929163738,0.08442818153381376,0.6761014481660804,0.1578859194370341
1710515569727691000,28.47069091796875,-4.8927693367004395,-1.6839441061019897,-4.515427112579346,0.9523306488990784,-0.287456750869751,-0.10215407609939575,-0.597304105758667,0.561290979385376,0.7421535849571228,0.7254726561262498,0.05323165834403698,0.6678992096156593,0.1573744491293998
1710515569737710600,28.480710693359374,-4.937504291534424,-1.8179824352264404,-4.533121585845947,0.9622013568878174,-0.23827026784420013,-0.1318953037261963,-0.6111879944801331,0.7712292671203613,0.8157027363777161,0.735764981779348,0.02155860597760531,0.6584736701579282,0.15683705115274993
1710515569747729700,28.490729736328124,-4.956877708435059,-2.016735076904297,-4.528982162475586,0.9690582752227783,-0.18715374171733856,-0.16093486547470093,-0.5709103941917419,0.9399766325950623,0.810822069644928,0.7457070632253597,-0.010142575974637224,0.6476339184132308,0.15616887583662714
1710515569757749800,28.500749755859374,-4.82754373550415,-2.2711400985717773,-4.4700422286987305,0.9725586771965027,-0.13468827307224274,-0.18970729410648346,-0.49367672204971313,1.026076316833496,0.7393747568130493,0.7554839047557063,-0.04137163517637019,0.6351651291385152,0.1552348115134647
1710515569767768800,28.510768798828124,-4.8199849128723145,-2.478459119796753,-4.296682357788086,0.9724604487419128,-0.082105852663517,-0.21812699735164642,-0.42758429050445557,1.1019880771636963,0.6175259351730347,0.765011763125149,-0.07164825973548336,0.6211304444016905,0.15433905589415997
1710515569777789000,28.520788818359375,-4.8699421882629395,-2.6234664916992188,-4.119892120361328,0.968875527381897,-0.02990896627306938,-0.24573542177677155,-0.3531832695007324,1.1936053037643433,0.4872974157333374,0.7740208620202637,-0.10130055618293042,0.6056983433746171,0.15414145922366934
1710515569787808000,28.53080810546875,-4.906099319458008,-2.676846981048584,-3.9770872592926025,0.9621548056602478,0.021917972713708878,-0.27162081003189087,-0.29406386613845825,1.2656186819076538,0.4200126826763153,0.7822603091642342,-0.13040583499071898,0.5892231396256498,0.15452944099848945
1710515569797826800,28.540826904296875,-4.949605464935303,-2.692833185195923,-3.8766591548919678,0.9526458978652954,0.07356798648834229,-0.29504865407943726,-0.24955129623413086,1.2203621864318848,0.3557787239551544,0.7895486240146523,-0.1591374088912263,0.5719711214592473,0.15536226529487476
1710515589885905000,48.62890478515625,-4.242458343505859,-2.921175956726074,-4.124173164367676,0.6698043346405029,0.5952765941619873,-0.4438557028770447,-0.1877792477607727,0.9906303882598877,-0.4339213967323303,0.8495855378576643,-0.35560383680687846,0.3893816361424861,0.01149923181472372
1710515589895924000,48.638924072265624,-4.000509262084961,-2.7557971477508545,-3.9989614486694336,0.632143497467041,0.6399419903755188,-0.43688541650772095,-0.14181756973266602,0.8402521014213562,-0.502262532711029,0.8475788101830052,-0.3806840610105288,0.36964433162682103,0.00727385352328254
1710515589905943800,48.64894384765625,-3.6769161224365234,-2.659487247467041,-3.9449803829193115,0.5941483974456787,0.6810130476951599,-0.4280291795730591,-0.07901173830032349,0.6678334474563599,-0.5243634581565857,0.8449895452471688,-0.404090100778627,0.3502807554260376,0.0026989786076445756
1710515589915963000,48.658962890625,-3.249631643295288,-2.626584529876709,-3.8788700103759766,0.5554946660995483,0.7182834148406982,-0.41892051696777344,-0.08824014663696289,0.6063319444656372,-0.5487918853759766,0.842291018090775,-0.4254295254162937,0.3309825751639499,-0.002435913171165821
1710515592852669000,51.5956689453125,-5.691720485687256,-2.5566909313201904,-4.066503047943115,0.9089354872703552,-0.21175038814544678,-0.35916292667388916,-0.3702239990234375,1.1387370824813843,0.5808883309364319,0.814506369768961,0.041881211246606466,0.5645037704945389,0.1271252453015622
1710515592862688000,51.60568798828125,-5.79653263092041,-2.5457143783569336,-4.067928314208984,0.9067459106445312,-0.15307871997356415,-0.3929107189178467,-0.35199737548828125,1.1737086772918701,0.5288665294647217,0.8249484023198521,0.008535974971981906,0.5508827215376526,0.1261568339588107
1710515592872708000,51.6157080078125,-5.773108959197998,-2.513184070587158,-4.0802388191223145,0.9014085531234741,-0.09245916455984116,-0.42298203706741333,-0.3520464301109314,1.1164307594299316,0.44939500093460083,0.834164536173649,-0.02507247430609902,0.5365448259763026,0.1251417354586321
1710515592882727200,51.62572705078125,-5.650394916534424,-2.4686572551727295,-4.058328628540039,0.8930412530899048,-0.030903391540050507,-0.4489123821258545,-0.3744865655899048,1.0490612983703613,0.347395658493042,0.8421141389128838,-0.05827735296909025,0.5216776350724606,0.12369301393506525
1710515592892746200,51.63574633789062,-5.61954402923584,-2.4167046546936035,-4.034245014190674,0.8817694783210754,0.031034333631396294,-0.47065839171409607,-0.382624089717865,1.0054951906204224,0.22161969542503357,0.8487959821252389,-0.09103626391467273,0.5063429734088062,0.12196090648714598
1710515592902766000,51.64576611328125,-5.5576324462890625,-2.3598177433013916,-4.029683589935303,0.8677847385406494,0.09325271099805832,-0.48811212182044983,-0.35769879817962646,0.9903807044029236,0.16039913892745972,0.8541927616349043,-0.12353129942597876,0.49059551444414196,0.12004428513959117
1710515592912785200,51.65578515625,-5.448151588439941,-2.3232688903808594,-3.9924967288970947,0.851183295249939,0.15512330830097198,-0.5014215707778931,-0.309389591217041,0.9753545522689819,0.16212719678878784,0.8583989964016755,-0.15543464478951285,0.47447790156994474,0.11773633355258921
1710515592922805000,51.66580493164062,-5.364587783813477,-2.3038017749786377,-3.9548909664154053,0.8320546746253967,0.21606656908988953,-0.5108819007873535,-0.26419883966445923,0.9692819714546204,0.14853137731552124,0.8614874707324515,-0.18666230246213233,0.4579478659867122,0.1152400849842432
1710515592932824000,51.67582397460937,-5.250287055969238,-2.2727510929107666,-3.92689847946167,0.8105500340461731,0.2758468687534332,-0.5166402459144592,-0.2326539158821106,0.9837051630020142,0.16227012872695923,0.8635204498149361,-0.21717280340498984,0.44103950039501705,0.11248363173572105
1710515592942843100,51.68584301757812,-5.079813480377197,-2.2768263816833496,-3.901085138320923,0.7867966294288635,0.3340044319629669,-0.5190299153327942,-0.2134476900100708,0.9587354063987732,0.12472754716873169,0.864608442545537,-0.24677216136693184,0.423778879366431,0.1093944927806112
1710515592952863200,51.69586328125,-4.894350051879883,-2.277907609939575,-3.882101535797119,0.7607871294021606,0.3901076912879944,-0.5186703205108643,-0.21627724170684814,0.8666518926620483,-0.005530118942260742,0.8649464267704232,-0.27520550069278443,0.40611177139003557,0.1058431929287054
1710515592962882000,51.705882080078126,-4.790338516235352,-2.171308755874634,-3.8203651905059814,0.7331508994102478,0.4440571963787079,-0.5150757431983948,-0.2367519736289978,0.7486765384674072,-0.16436761617660522,0.864360776215413,-0.3027297619419724,0.3883514068251488,0.10207028515280774
1710515592972901000,51.715901123046876,-4.716179847717285,-2.0461995601654053,-3.786529541015625,0.7044385075569153,0.4957631826400757,-0.5079225301742554,-0.24243289232254028,0.6363321542739868,-0.22955000400543213,0.8627660328709996,-0.32941615784851896,0.3708419211350161,0.09795946907606651
1710515592982921200,51.72592114257812,-4.537774562835693,-1.981981635093689,-3.8173601627349854,0.6745032668113708,0.5454260110855103,-0.497549831867218,-0.23393625020980835,0.5266717672348022,-0.18256491422653198,0.8602563520061316,-0.35540867503639806,0.353425749083573,0.0934554570048311
1710515592992940300,51.73594018554687,-4.139385223388672,-1.9861042499542236,-3.808593988418579,0.6429677605628967,0.5920450091362,-0.4858757257461548,-0.22458702325820923,0.5062063336372375,-0.15064465999603271,0.8574175767975718,-0.37978721829057976,0.3358925569771793,0.08816432903144471
1710515593002959000,51.745958984375,-3.753305673599243,-2.031175374984741,-3.7486729621887207,0.6100831627845764,0.6347202062606812,-0.4742666184902191,-0.1912752389907837,0.5510708093643188,-0.17084449529647827,0.8546046419718651,-0.4020204130368645,0.318192199604228,0.08236659882540823
1710515593012979000,51.75597900390625,-3.5768191814422607,-2.088660478591919,-3.6861016750335693,0.5760380029678345,0.6739504337310791,-0.46257004141807556,-0.13081705570220947,0.6342008113861084,-0.13272112607955933,0.8517351187197341,-0.4225568671943114,0.30026766785121733,0.07636954874107618
1710515593022998000,51.765998046875,-3.4133176803588867,-2.1748414039611816,-3.638983964920044,0.5409259796142578,0.7104984521865845,-0.45010122656822205,-0.09100532531738281,0.6743282079696655,-0.11122387647628784,0.8485738255731431,-0.4420771295890514,0.28198793885433904,0.07052027452311463
1710515593033018000,51.77601806640625,-3.050567626953125,-2.308891534805298,-3.576833963394165,0.5046145915985107,0.7438094615936279,-0.4383052885532379,-0.08586770296096802,0.6065475940704346,-0.23866617679595947,0.8455588510910631,-0.45996522751961444,0.26320970223227863,0.06467447811492716
1710515597167539000,55.9105390625,-5.137705326080322,-3.0664894580841064,-3.4920387268066406,0.9040427207946777,-0.18629853427410126,-0.38470715284347534,-0.4039207100868225,0.99908846616745,0.29199469089508057,0.8308596579602863,0.1411692599970773,0.536393196178255,-0.045009095154181285
1710515597177557800,55.92055786132813,-5.251144886016846,-3.0858469009399414,-3.3558335304260254,0.8971293568611145,-0.13439513742923737,-0.42082884907722473,-0.326343834400177,1.0693011283874512,0.28176021575927734,0.8415235556610033,0.10956660101244804,0.5268593081491892,-0.047461069633918676
1710515597187576800,55.93057690429688,-5.356129169464111,-3.084913492202759,-3.190251588821411,0.8871427178382874,-0.0818755105137825,-0.454174280166626,-0.20559364557266235,1.1338317394256592,0.3223382830619812,0.8512900251090949,0.07777089081704656,0.5165893479179868,-0.04891279744488372
1710515597197596700,55.9405966796875,-5.415711402893066,-3.0770039558410645,-3.0689303874969482,0.8744008541107178,-0.0289252158254385,-0.48434141278266907,-0.11748862266540527,1.1614630222320557,0.3178832530975342,0.8600716936811708,0.04590304899534117,0.5056898362142033,-0.04947163902408456
1710515597207615700,55.95061572265625,-5.336358547210693,-3.0479071140289307,-2.9629993438720703,0.8591734766960144,0.02414536476135254,-0.5111142992973328,-0.06748658418655396,1.17435622215271,0.22704142332077026,0.8678180306650264,0.014270295074324073,0.4942056303055799,-0.04948689400522926
1710515597217634800,55.960634765625,-5.218107223510742,-2.979137659072876,-2.894798517227173,0.8419069647789001,0.07668084651231766,-0.5341467261314392,-0.06239652633666992,1.1777746677398682,0.08562988042831421,0.8744350201183254,-0.016617069200447296,0.48233858637225147,-0.04936340708361136
1710515597227654700,55.97065454101563,-5.170316219329834,-2.9213364124298096,-2.8583319187164307,0.8228898048400879,0.1289949268102646,-0.5533647537231445,-0.06791549921035767,1.1275053024291992,-0.06325817108154297,0.879925447238835,-0.047046126835415945,0.4702172807222139,-0.049127034965844994
1710515597237673700,55.980673828125,-5.101222991943359,-2.8748555183410645,-2.7826404571533203,0.8022084832191467,0.18087393045425415,-0.5689868927001953,-0.0739675760269165,1.0415533781051636,-0.1691875457763672,0.8843725675824889,-0.07701530832851552,0.45779383120146244,-0.0487702935624869
1710515624579891500,83.32289135742188,-5.0672807693481445,-2.618232250213623,-3.9863035678863525,0.7417348027229309,0.3840864300727844,-0.5498246550559998,-0.1995137333869934,0.8559954166412354,0.06615161895751953,0.8750586580780015,-0.2627290556498464,0.3950456985983789,0.09583732761247768
1710515624589911600,83.33291162109376,-4.961343765258789,-2.5442006587982178,-3.9817769527435303,0.7110472321510315,0.440713495016098,-0.5478900074958801,-0.19478130340576172,0.7507537603378296,0.0035022497177124023,0.8749546879840989,-0.2912158020553706,0.3758302375627481,0.09164743698314687
1710515624599930400,83.34293041992187,-4.88493013381958,-2.4569218158721924,-3.9572227001190186,0.6787625551223755,0.49522119760513306,-0.5422521233558655,-0.178472638130188,0.5609159469604492,-0.052428603172302246,0.8738073275889708,-0.3189166946576259,0.356603518359594,0.08710275376024211
1710515624609949400,83.35294946289062,-4.8354172706604,-2.4096062183380127,-3.909003496170044,0.6451046466827393,0.5475733280181885,-0.5329198837280273,-0.15717428922653198,0.4550054669380188,-0.13245493173599243,0.8715894440514318,-0.34602212670443455,0.3373555392558275,0.08241323333262597
1710515624619969300,83.36296923828125,-4.569029808044434,-2.4082894325256348,-3.8476953506469727,0.6101486682891846,0.5968788862228394,-0.5210127234458923,-0.1614791750907898,0.47535622119903564,-0.1703324317932129,0.8686134485497142,-0.3719799988555011,0.3180008063954902,0.07757017083135566
1710515624629988400,83.37298828125,-4.175532341003418,-2.4200024604797363,-3.77445387840271,0.5740104913711548,0.6420621275901794,-0.508201003074646,-0.1685691475868225,0.5373354554176331,-0.163399338722229,0.8653661516981668,-0.3959537705565539,0.298529932741833,0.07240121484201664
1710515624640008400,83.38300854492188,-3.8757240772247314,-2.4390640258789062,-3.6794869899749756,0.5370419025421143,0.6829926371574402,-0.4950829744338989,-0.16704678535461426,0.5565551519393921,-0.1656530499458313,0.8620008247594532,-0.417870208039286,0.2790035884654695,0.06705343411326027
1710515624650027300,83.39302734375,-3.7550833225250244,-2.4128849506378174,-3.5814096927642822,0.49960824847221375,0.7204579710960388,-0.48096996545791626,-0.15875735878944397,0.49051010608673096,-0.17279285192489624,0.8582967423595101,-0.4383698126218851,0.25951285564025767,0.06174031429704051
1710515624660046300,83.40304638671876,-3.5274856090545654,-2.35882830619812,-3.5388898849487305,0.4620329439640045,0.7549436688423157,-0.4653875231742859,-0.15504136681556702,0.3977510333061218,-0.18150877952575684,0.854111527730134,-0.4578245845173997,0.2402142683645947,0.05645547319852939
1710515624670066400,83.41306640625,-3.1882565021514893,-2.293281078338623,-3.5008316040039062,0.42415985465049744,0.7859482765197754,-0.44985976815223694,-0.18284207582473755,0.3007674217224121,-0.2270047664642334,0.8499159887833397,-0.4755661669757539,0.2211491175123281,0.05072217544046814
1710515629815832300,88.55883227539063,-3.9571847915649414,-1.0275784730911255,-3.944077968597412,0.8604453802108765,-0.5056781768798828,-0.06263775378465652,-0.3559744954109192,0.5045795440673828,0.4530948996543884,0.7192161229228502,0.2462846841934073,0.6387683275574014,0.11852052881319178
1710515629825851400,88.56885131835938,-4.08561372756958,-1.199179768562317,-3.8638057708740234,0.8786312937736511,-0.46855470538139343,-0.09199732542037964,-0.2989498972892761,0.5822175145149231,0.4607717990875244,0.729766556247485,0.2198513522932096,0.6369197111193844,0.11592856664204611
1710515629835870500,88.57887036132813,-4.1990203857421875,-1.353600025177002,-3.7640862464904785,0.8944458365440369,-0.4302118122577667,-0.12200144678354263,-0.23749393224716187,0.6105555295944214,0.4725416302680969,0.7403153073550013,0.19319891788154675,0.6337771347454126,0.1137273510322632
1710515629845890600,88.588890625,-4.293919086456299,-1.4741854667663574,-3.727428913116455,0.9078885912895203,-0.3905797302722931,-0.15226884186267853,-0.19409769773483276,0.6352086663246155,0.4551863670349121,0.7507366470054269,0.16628073569843196,0.6294571430020296,0.11193266734961908
1710515629855909600,88.59890966796875,-4.381995677947998,-1.5722181797027588,-3.737203359603882,0.9191561341285706,-0.34916114807128906,-0.18231405317783356,-0.19468408823013306,0.6368962526321411,0.43338221311569214,0.7609189675567825,0.1389889508683548,0.6241194148716356,0.11026936362091294
1710515629865929700,88.6089296875,-4.471552848815918,-1.6385815143585205,-3.775695562362671,0.9283036589622498,-0.3056606352329254,-0.2117164582014084,-0.22589582204818726,0.6359524726867676,0.3874672055244446,0.7707540370407067,0.11121817914507331,0.6178772447420681,0.10861130702687187
1710515629875948500,88.61894848632812,-4.562066555023193,-1.660194993019104,-3.8400659561157227,0.9353563189506531,-0.2598765790462494,-0.23994313180446625,-0.2543565630912781,0.6725963354110718,0.31529104709625244,0.7800845570019889,0.08281297509451746,0.6108767835582876,0.10695637059507856
1710515629885967600,88.62896752929687,-4.507816791534424,-1.7122493982315063,-3.8900604248046875,0.94022536277771,-0.21200959384441376,-0.2665111720561981,-0.29129958152770996,0.7308390140533447,0.2726452648639679,0.788815759358261,0.0540948095160272,0.6031734077784909,0.10500124471848184
1710515629895987500,88.63898754882813,-4.493832588195801,-1.8134939670562744,-3.9074478149414062,0.9426296353340149,-0.16260582208633423,-0.2915625274181366,-0.3383968472480774,0.7699209451675415,0.24746465682983398,0.7970222457779401,0.025426922354993668,0.5946193840646271,0.10264901027954092
1710515629906006500,88.64900659179688,-4.454156875610352,-1.9676539897918701,-3.87890887260437,0.9422591924667358,-0.11218149960041046,-0.31553560495376587,-0.3204178810119629,0.810393214225769,0.25913920998573303,0.8048243858644287,-0.0030855222689206135,0.5849980096382462,0.10012692649917346
1710515629916025300,88.659025390625,-4.416271686553955,-2.149076223373413,-3.7919206619262695,0.9388447403907776,-0.06145862489938736,-0.3388116955757141,-0.2593556046485901,0.8234062790870667,0.2655695676803589,0.8123252226092746,-0.03118023755567896,0.5741271191271381,0.09764005893184387
1710515629926045400,88.66904541015624,-4.443305969238281,-2.2996652126312256,-3.6874473094940186,0.9323817491531372,-0.010875614359974861,-0.361311674118042,-0.19825083017349243,0.7924613356590271,0.27998238801956177,0.8194787652746671,-0.05882746544176294,0.5620351334278377,0.09544895430715504
1710515629936064500,88.679064453125,-4.479435443878174,-2.3851635456085205,-3.6153721809387207,0.9231186509132385,0.039674799889326096,-0.3824629783630371,-0.15341955423355103,0.7433910369873047,0.2985396981239319,0.8261068647300008,-0.08627247668031715,0.5489312937464517,0.09369639818330099
1710515629946084600,88.68908471679687,-4.492466449737549,-2.408388614654541,-3.5798513889312744,0.9113445281982422,0.09035839140415192,-0.40160492062568665,-0.1546916961669922,0.6635326743125916,0.27008944749832153,0.8320535510043495,-0.11355006363381605,0.5350737573919148,0.09213783833740721
1710515629956103700,88.69910375976562,-4.549253940582275,-2.3903632164001465,-3.5492770671844482,0.8973429203033447,0.14122849702835083,-0.4181269705295563,-0.18416237831115723,0.598304033279419,0.18405717611312866,0.8371585558640855,-0.14077179083461822,0.5206916728598467,0.09071406749987683
1710515629966122500,88.70912255859375,-4.5135087966918945,-2.3331024646759033,-3.5990030765533447,0.8813203573226929,0.19237056374549866,-0.43158793449401855,-0.2352784276008606,0.5781067609786987,0.11261826753616333,0.8413292166813503,-0.16797678475666983,0.5059543721073666,0.08921454927815799
1710515629976142300,88.71914233398438,-4.366092205047607,-2.292780637741089,-3.6468091011047363,0.8632694482803345,0.2435390055179596,-0.4421025812625885,-0.300754189491272,0.5627659559249878,0.05065363645553589,0.844669844252642,-0.1947779980944538,0.4909279365977241,0.08708732717121859
1710515629986161400,88.72916137695313,-4.267346382141113,-2.291208028793335,-3.657292127609253,0.8431957960128784,0.29404962062835693,-0.45006200671195984,-0.34685784578323364,0.5622584223747253,-0.016383826732635498,0.8472904404674911,-0.22091769544886064,0.47556741131090347,0.08443943368172732
1710515629996180500,88.73918041992188,-4.08184289932251,-2.3510940074920654,-3.6563234329223633,0.8209862112998962,0.3435535132884979,-0.45601826906204224,-0.35663074254989624,0.574338972568512,-0.04436314105987549,0.849342434793951,-0.2463060177982986,0.45970013545611743,0.08140392474474967
1710515635372589300,94.11558935546876,-4.501630783081055,-1.3487387895584106,-4.680495262145996,0.7461739778518677,-0.6575927734375,-0.10390431433916092,-0.8807565569877625,0.2556915283203125,1.0429607629776,0.737325018753481,0.3776267149719089,0.5526716100279265,0.09112599229594767
1710515635382608400,94.1256083984375,-4.7397379875183105,-1.4110101461410522,-5.054046154022217,0.775514543056488,-0.6147087812423706,-0.14391069114208221,-0.9292316436767578,0.2741631269454956,1.0635885000228882,0.7516804704890525,0.3474896918197378,0.5543424660342909,0.08325749179476222
1710515635392628500,94.13562841796875,-5.0165696144104,-1.4669709205627441,-5.3684163093566895,0.8039909601211548,-0.565399169921875,-0.18418042361736298,-0.9760948419570923,0.337188720703125,1.0613930225372314,0.7658472800837153,0.31499841792787153,0.5555949826321573,0.07462073722545319
1710515635402647300,94.14564721679687,-5.157238960266113,-1.5212589502334595,-5.643009662628174,0.8306606411933899,-0.5098190307617188,-0.22380240261554718,-1.0215632915496826,0.42646026611328125,1.0673539638519287,0.7795178670698195,0.2804706180090204,0.5562688478405592,0.065216069160329
1710515635412666400,94.15566625976562,-5.3720383644104,-1.6082868576049805,-5.823654651641846,0.8544126749038696,-0.44854405522346497,-0.2622736692428589,-1.0422635078430176,0.5577664375305176,1.0555475950241089,0.7925179649990726,0.2442220956823139,0.5560744017975133,0.0552473321120803
1710515635422686500,94.1656865234375,-5.595436096191406,-1.7044600248336792,-5.954115867614746,0.8742761015892029,-0.3820492625236511,-0.2994661033153534,-1.034706950187683,0.6588894128799438,1.0213289260864258,0.8048002767245459,0.20630377835926952,0.5547122632932638,0.04505270563182343
1710515635432705300,94.17570532226563,-5.813490867614746,-1.8356025218963623,-6.0367326736450195,0.8894872069358826,-0.3108912408351898,-0.33490175008773804,-1.0022190809249878,0.7900171875953674,1.0163135528564453,0.816232353597813,0.1668637766696518,0.5520014485836502,0.03486587043672165
1710515635442725400,94.18572534179688,-6.075052261352539,-2.0336742401123047,-6.051946640014648,0.899273157119751,-0.2357003092765808,-0.36844706535339355,-0.9623376727104187,0.9813057780265808,1.0410544872283936,0.8268027745944887,0.12603536441632612,0.5476235528632287,0.024914498363115392
1710515635452744400,94.19574438476562,-6.395905017852783,-2.206813097000122,-6.01539945602417,0.902994692325592,-0.15719683468341827,-0.3998621106147766,-0.9012704491615295,1.1757973432540894,1.0735377073287964,0.8364725833600993,0.08384228454532335,0.5413311482952163,0.01564041844433415
1710515635462763300,94.20576318359375,-6.754879474639893,-2.3623433113098145,-5.966775417327881,0.9004996418952942,-0.07570553570985794,-0.4282161295413971,-0.8317740559577942,1.2765569686889648,1.0731136798858643,0.8450168111559073,0.0401304108460815,0.5331805322831329,0.007393173760248235
1710515635472783400,94.21578344726562,-7.048266887664795,-2.5251243114471436,-5.874319076538086,0.8917292356491089,0.008015076629817486,-0.45249828696250916,-0.7701624631881714,1.3352924585342407,1.0341023206710815,0.8522024488203982,-0.00487364636916343,0.5231893539330025,0.00027866584920564503
1710515635482802400,94.22580249023437,-7.23414421081543,-2.686770439147949,-5.760073661804199,0.8767176866531372,0.09273624420166016,-0.471981018781662,-0.7093135118484497,1.3740911483764648,0.9747276306152344,0.8578796435293423,-0.050622054614926276,0.5113187830174584,-0.005750799257368767
1710515635492821500,94.23582153320312,-7.248895645141602,-2.8629939556121826,-5.64210844039917,0.8556798696517944,0.17708449065685272,-0.4862644076347351,-0.6596044301986694,1.3826384544372559,0.9048130512237549,0.8619817024072554,-0.09640191350796838,0.4975685547714068,-0.010944333800057066
1710515635502841600,94.24584155273438,-7.214982509613037,-3.039865016937256,-5.491309642791748,0.8289552330970764,0.2597021162509918,-0.4953664541244507,-0.6117159128189087,1.4061455726623535,0.8145345449447632,0.8645469367652878,-0.14152728672870327,0.4819614035483471,-0.015549113990495763
1710515635512860400,94.2558603515625,-7.25285530090332,-3.1481592655181885,-5.313251972198486,0.7972569465637207,0.33976757526397705,-0.49893829226493835,-0.5601658821105957,1.441116213798523,0.7141025066375732,0.8655044916180626,-0.18593835453590196,0.4647125859329574,-0.01926633189965896
1710515635522879500,94.26587939453125,-7.333722114562988,-3.20056414604187,-5.242817401885986,0.7614452242851257,0.41730690002441406,-0.4960404634475708,-0.47616690397262573,1.4271602630615234,0.6288987398147583,0.8645978206598498,-0.2298949041451531,0.44623772079766155,-0.022155935973169574
1710515635532899300,94.2758994140625,-7.526115417480469,-3.2537682056427,-5.189826011657715,0.7216894030570984,0.4926844835281372,-0.4862370193004608,-0.4053441882133484,1.3237522840499878,0.5395359992980957,0.86169610146691,-0.2737726941012895,0.426532542190135,-0.02446091622176061
1710515635542918400,94.28591845703124,-7.600397109985352,-3.2475545406341553,-5.1438727378845215,0.6787368655204773,0.5652094483375549,-0.4688866436481476,-0.410319447517395,1.2271947860717773,0.4015495777130127,0.8566011162981013,-0.31757834274351854,0.40583331476346524,-0.026037192684022336
1710515635552938500,94.2959384765625,-7.5973100662231445,-3.1671087741851807,-5.1029438972473145,0.633230984210968,0.6337472796440125,-0.44427812099456787,-0.415518581867218,1.1237294673919678,0.29388749599456787,0.8493449027427998,-0.3606648560045712,0.38442398183633586,-0.027430066958010146
1710515635562957300,94.30595727539063,-7.2239298820495605,-3.0846757888793945,-5.15428352355957,0.5856331586837769,0.6970627903938293,-0.4136873185634613,-0.41537564992904663,0.9774519801139832,0.2961794435977936,0.8402331186150109,-0.40221212937978074,0.36246620080895836,-0.029187367582772576
1710515635572976400,94.31597631835938,-6.368524551391602,-3.0701634883880615,-5.2099785804748535,0.5356473922729492,0.7533574104309082,-0.38148975372314453,-0.4734984040260315,0.958770215511322,0.2873430550098419,0.8304768949778487,-0.4402958825505261,0.3396978902494695,-0.03244987740377666
1710515635582996500,94.32599658203125,-5.566401958465576,-3.1266770362854004,-5.138129711151123,0.48394080996513367,0.8016855716705322,-0.35085827112197876,-0.5826804041862488,0.9150502681732178,0.21836620569229126,0.8210124701917115,-0.4739927553128776,0.31607235386921506,-0.03698145423505478
1710515638528692000,97.27169189453124,-3.8618643283843994,-0.6413962244987488,-5.037107944488525,0.7268629670143127,-0.662615180015564,0.18058566749095917,-0.6259719133377075,0.26809924840927124,0.6280539035797119,0.638488418479898,0.47624898655319325,0.6028928083567662,0.04516249100105873
1710515638538712000,97.28171215820312,-4.031972885131836,-0.7340266108512878,-5.137225151062012,0.761005699634552,-0.6311988234519958,0.14986033737659454,-0.6230358481407166,0.3156013488769531,0.7173882722854614,0.6507973575586264,0.4481511345961775,0.6116295671621725,0.03914761769852187
1710515638548731100,97.29173120117187,-4.250148773193359,-0.8404151201248169,-5.225601673126221,0.7939414381980896,-0.5963694453239441,0.11832410097122192,-0.5975913405418396,0.4238383173942566,0.7481005191802979,0.663128898420888,0.41870354238241864,0.6195558030996199,0.0331371277454867
1710515638558750200,97.30175024414062,-4.559525012969971,-0.9623736143112183,-5.288068771362305,0.8252804279327393,-0.5582046508789062,0.08555584400892258,-0.6083157062530518,0.5009536743164062,0.7164003849029541,0.6756250695986592,0.3876594868063235,0.626496644468252,0.027438072407060404
1710515638568770000,97.31177001953125,-4.877685546875,-1.0882726907730103,-5.348686218261719,0.8546432256698608,-0.5166546106338501,0.05150667577981949,-0.6166366934776306,0.5883709192276001,0.7138131856918335,0.6882967730342185,0.35489236679321495,0.6323011517778121,0.022229955843508818
1710515638578789000,97.3217890625,-5.158743381500244,-1.1900098323822021,-5.34236478805542,0.8815395832061768,-0.4718154966831207,0.01667780429124832,-0.5734188556671143,0.6898788213729858,0.681137204170227,0.7009628354423996,0.32049367921510385,0.6368851573409389,0.017669723884131888
1710515638588808000,97.33180786132813,-5.252282619476318,-1.2951433658599854,-5.276658058166504,0.9053859114646912,-0.4242139160633087,-0.017863720655441284,-0.4903314709663391,0.7956738471984863,0.6619982719421387,0.7132639473678547,0.2851186214862603,0.6401371032941985,0.013656654362285107
1710515638598828000,97.341828125,-5.267945766448975,-1.3842579126358032,-5.172347545623779,0.9258436560630798,-0.3744226098060608,-0.051200903952121735,-0.3879711627960205,0.888979434967041,0.615547239780426,0.7249155085126737,0.2494795212433766,0.6419965082805869,0.009906179342772412
1710515638608847000,97.35184716796876,-5.378779888153076,-1.4413877725601196,-5.100182056427002,0.9428305625915527,-0.3227612376213074,-0.08304066210985184,-0.31723546981811523,0.9500958323478699,0.5222343802452087,0.7358511584155222,0.21355810279491333,0.642551637808176,0.0065888065665226
1710515638618867200,97.3618671875,-5.508413314819336,-1.4463506937026978,-4.978064060211182,0.9563697576522827,-0.2694260776042938,-0.11298906803131104,-0.2596076726913452,1.0170304775238037,0.43591082096099854,0.7459748454698177,0.1771324628702862,0.6419731748404396,0.004013672786476613
1710515638628886300,97.37188623046875,-5.502336025238037,-1.4571378231048584,-4.894721031188965,0.9665086269378662,-0.21487119793891907,-0.14032670855522156,-0.17508095502853394,1.0537383556365967,0.39063191413879395,0.7550890056797553,0.14058496914335897,0.6403690423540247,0.002001092042286722
1710515638638905000,97.38190502929687,-5.446369647979736,-1.493082046508789,-4.8004913330078125,0.9733476638793945,-0.15937013924121857,-0.16491106152534485,-0.09213727712631226,0.9753949046134949,0.32375508546829224,0.7631877610831161,0.10423180331604992,0.6377148265744064,0.0002142539287257818
1710515638648925200,97.39192529296875,-5.220829963684082,-1.55563223361969,-4.738372802734375,0.9769368171691895,-0.10334339737892151,-0.18685469031333923,-0.09804582595825195,0.8912767171859741,0.3136857748031616,0.7703403588886101,0.06852373950851724,0.6339378129319797,-0.001758697001612528
1710515638658944300,97.4019443359375,-5.114873886108398,-1.5966198444366455,-4.685854911804199,0.9773751497268677,-0.047050897032022476,-0.2062140554189682,-0.11499404907226562,0.8650287985801697,0.3153449594974518,0.7765889093165672,0.033618402693188894,0.6290967918523759,-0.004104664083384748
1710515638668963000,97.41196313476563,-5.155649185180664,-1.580156922340393,-4.647212028503418,0.9748356938362122,0.009622751735150814,-0.22271648049354553,-0.13093316555023193,0.8429468274116516,0.2633354067802429,0.781868344612128,-0.0011058859359843846,0.6234104056789943,-0.006330851602023634
1710515638678983200,97.42198315429688,-5.1099700927734375,-1.5822679996490479,-4.615445137023926,0.9694353938102722,0.06660529226064682,-0.23613296449184418,-0.14936703443527222,0.8304741382598877,0.20440995693206787,0.7861272130566058,-0.03577168494100212,0.6169715611939103,-0.008398364552293994
1710515638689002000,97.432001953125,-4.883474826812744,-1.647684097290039,-4.569230079650879,0.9611583948135376,0.12315846979618073,-0.24699552357196808,-0.18198347091674805,0.782038688659668,0.141145259141922,0.7895457293830274,-0.06969553104212699,0.609626745766597,-0.01074662035105218
1710515638699022000,97.44202197265625,-4.7832255363464355,-1.7125585079193115,-4.480242729187012,0.9500796794891357,0.178644597530365,-0.2558020055294037,-0.19916421175003052,0.738652765750885,0.06744757294654846,0.7922899721753914,-0.10262643555641451,0.6013042547094449,-0.013325035700211723
1710515638709041200,97.45204125976562,-4.837525367736816,-1.775951623916626,-4.392350196838379,0.936398983001709,0.2330872118473053,-0.2623498737812042,-0.17114019393920898,0.7130339741706848,-0.006067454814910889,0.7943129666280715,-0.13512750747110266,0.59208582540812,-0.015555298023715516
1710515638719060200,97.46206030273437,-4.740145683288574,-1.8836430311203003,-4.309586048126221,0.920222818851471,0.28631091117858887,-0.2668636739253998,-0.1347002387046814,0.7013142704963684,-0.01008334755897522,0.7956947487995104,-0.1672068899551952,0.5819020652140658,-0.017373723197972504
1710515638729080300,97.47208032226563,-4.4951276779174805,-1.9887796640396118,-4.225368976593018,0.9016703367233276,0.33769115805625916,-0.27010267972946167,-0.12107646465301514,0.666688084602356,0.05101698637008667,0.7966682887531952,-0.19813966807922373,0.570691982954354,-0.019264322565836996
1710515638739099100,97.48209912109375,-4.266921520233154,-2.0813236236572266,-4.170283317565918,0.8808833956718445,0.38707637786865234,-0.2724268436431885,-0.10993307828903198,0.5889825820922852,0.14243724942207336,0.7973405931341759,-0.22768228488929357,0.5585224691253172,-0.021481419232353055
1710515671480870000,130.22386987304688,-4.273401260375977,-1.4296530485153198,-5.0596208572387695,0.7785108685493469,-0.6128752827644348,0.1352957934141159,-0.7401654124259949,0.2585204839706421,0.7154428958892822,0.6425715541836643,0.5810089693612337,0.47966287433130583,-0.13947756505333705
1710515671490889700,130.2338896484375,-4.390995502471924,-1.52781343460083,-5.107242107391357,0.8106020092964172,-0.5773813724517822,0.09775122255086899,-0.7546021342277527,0.3157542943954468,0.7528500556945801,0.6547622227251855,0.5535023302226313,0.4924538369457238,-0.14970279948628298
1710515671500908800,130.24390869140626,-4.557168960571289,-1.621514916419983,-5.123603820800781,0.8404330015182495,-0.5386226177215576,0.05965213105082512,-0.7360169291496277,0.4250972867012024,0.7736608982086182,0.6668419458879986,0.5246693291547133,0.5045276600672487,-0.15967448295772158
1710515671510928000,130.25392797851563,-4.704435348510742,-1.7289702892303467,-5.134705066680908,0.8677335381507874,-0.4965720474720001,0.021339448168873787,-0.7090875506401062,0.5425772666931152,0.7347030639648438,0.678694546967602,0.49458906467633973,0.5158016879910492,-0.16942341470758615
1710515671520948000,130.2639479980469,-4.853804588317871,-1.844770073890686,-5.157032012939453,0.8921898007392883,-0.4513339400291443,-0.01718626357614994,-0.6824270486831665,0.6197910308837891,0.6762287020683289,0.6903655002881409,0.46319635071211857,0.5261710831997427,-0.1788540267923616
1710515671530966800,130.273966796875,-4.909428119659424,-1.9070841073989868,-5.226517200469971,0.9137250781059265,-0.40258339047431946,-0.05507638677954674,-0.6732158660888672,0.6443895101547241,0.6624525785446167,0.7015169736752666,0.4306466665557741,0.5357287133140118,-0.1881815276862196
1710515671540985900,130.28398583984375,-5.038705825805664,-1.9385689496994019,-5.261734485626221,0.9321094751358032,-0.35038724541664124,-0.09165831655263901,-0.6810563802719116,0.6858518123626709,0.7019946575164795,0.7119765780846318,0.39696709047982115,0.5445989085739437,-0.19727847328644119
1710515671551006000,130.294005859375,-5.087922096252441,-1.965493083000183,-5.25605583190918,0.9470064043998718,-0.29529058933258057,-0.1264231950044632,-0.693893313407898,0.8206965923309326,0.7431834936141968,0.7216557445345995,0.36234669863031327,0.5527144567562573,-0.20597303823382299
1710515671561025000,130.30402490234374,-5.104908466339111,-1.995551347732544,-5.25169038772583,0.9581992626190186,-0.23787428438663483,-0.15896636247634888,-0.6911397576332092,0.9680989980697632,0.6960300207138062,0.7304599153940722,0.32707671258625226,0.5599443221262295,-0.2142700262338503
1710515671571043800,130.3140439453125,-5.038730144500732,-2.052748441696167,-5.240971565246582,0.9656191468238831,-0.17840681970119476,-0.18907879292964935,-0.6913880705833435,0.970872163772583,0.5823283791542053,0.7382931303782341,0.29137877078149826,0.5661793154454196,-0.22240221489335638
1710515671581063000,130.32406298828124,-4.930479526519775,-2.129868268966675,-5.212850570678711,0.9691184163093567,-0.11757832020521164,-0.21675987541675568,-0.7052024006843567,0.9645328521728516,0.5091641545295715,0.745158754172575,0.2555733454419926,0.5712287879506044,-0.2304743020358852
1710515671591082800,130.3340827636719,-4.86250638961792,-2.263784885406494,-5.139700889587402,0.9685838222503662,-0.05602995678782463,-0.24229378998279572,-0.6943832635879517,1.025741457939148,0.4455866813659668,0.7511917612092222,0.21979277988097246,0.5749297656735546,-0.23844920667130493
1710515671601101800,130.34410180664062,-4.9097466468811035,-2.4311535358428955,-5.0174407958984375,0.9638794660568237,0.005627153441309929,-0.26628005504608154,-0.6524779200553894,1.1191442012786865,0.3872365951538086,0.7567318386636148,0.18386067852454807,0.5771093686281805,-0.2459617080086031
1710515671611120600,130.35412060546875,-4.930856704711914,-2.5670158863067627,-4.887771129608154,0.9551227688789368,0.06694994121789932,-0.2885451912879944,-0.6029956340789795,1.153051495552063,0.3600938022136688,0.761886875069325,0.14764323322917758,0.5778657962140091,-0.2525887734621376
1710515671621140700,130.364140625,-4.833261966705322,-2.702864170074463,-4.739883899688721,0.9425532817840576,0.12738431990146637,-0.3088153302669525,-0.5487084984779358,1.0865287780761719,0.3910297751426697,0.7665029313322761,0.11164056903389193,0.5771730347748086,-0.2586139287112647
1710515671631159800,130.37415991210938,-4.741433620452881,-2.83618426322937,-4.586082935333252,0.9263921976089478,0.18627342581748962,-0.3272615373134613,-0.5065617561340332,0.9816192388534546,0.40508145093917847,0.7706661172675273,0.07611784531639862,0.5749567868086974,-0.2640166350608316
1710515671641179000,130.3841789550781,-4.6111369132995605,-2.938833713531494,-4.497514724731445,0.9068936705589294,0.24371902644634247,-0.3437225818634033,-0.5003078579902649,0.9288275837898254,0.35879838466644287,0.7742708116041469,0.04112360267420764,0.571355891318218,-0.2690097688707244
1710515671651199000,130.39419897460937,-4.438041687011719,-3.0492031574249268,-4.429919719696045,0.8842153549194336,0.2996964156627655,-0.35825327038764954,-0.5106496214866638,0.9188706874847412,0.2973708212375641,0.7772772528573064,0.006737710879650349,0.5664167839006105,-0.2738006413582459
1710515671661218000,130.40421801757813,-4.31509256362915,-3.1289713382720947,-4.360325813293457,0.858502984046936,0.35403600335121155,-0.37098708748817444,-0.5427680611610413,0.9106127023696899,0.22323638200759888,0.7797145539688681,-0.02698042027246047,0.5601593620976707,-0.27845820641207814
1710515671671236900,130.41423681640626,-4.250189304351807,-3.148479461669922,-4.345004081726074,0.8300872445106506,0.4069485664367676,-0.38124576210975647,-0.5810027122497559,0.890247106552124,0.1734517216682434,0.7814249817598649,-0.06024874799948537,0.5529441300684625,-0.282839424859737
1710515671681256000,130.424255859375,-4.313824653625488,-3.1552751064300537,-4.33153772354126,0.7990916967391968,0.45887938141822815,-0.38843607902526855,-0.602070152759552,0.8590835332870483,0.1977165937423706,0.7822510343964378,-0.09342399215360929,0.5450265357763449,-0.2868826773347232
1710515671691275800,130.43427587890625,-4.397535800933838,-3.199202537536621,-4.281550884246826,0.7657625079154968,0.5097435116767883,-0.392134428024292,-0.5989229679107666,0.851096510887146,0.2416524589061737,0.7822117049587602,-0.12678957997523066,0.5365232357018103,-0.29019333997201463
1710515673394556200,132.13755615234376,-0.031178880482912064,0.03418710082769394,0.1181664764881134,-0.45070067048072815,0.8640188574790955,-0.2243669033050537,-0.005598187446594238,0.03893536329269409,0.0032826364040374756,0.6856202050507182,-0.6225997613243579,0.013641409298191041,-0.3769727781009643
1710515673404576000,132.14757592773438,-0.05509167164564133,0.06625742465257645,0.09732750803232193,-0.44947731494903564,0.86467444896698,-0.2242952436208725,-0.0028237998485565186,0.02224278450012207,-0.011361166834831238,0.6857349414614751,-0.622613617732225,0.01430599344035297,-0.37671642142679934
1710515673414595000,132.15759497070312,-0.07649549841880798,0.08234903961420059,0.06997418403625488,-0.44866353273391724,0.8651866912841797,-0.22394883632659912,0.0018709003925323486,-0.023115158081054688,-0.01483561098575592,0.6856366692972048,-0.6227381989210036,0.01492360503092179,-0.37666540554460953
1710515673424614100,132.1676142578125,-0.06293334811925888,0.08434326946735382,0.038267649710178375,-0.4479138255119324,0.8656591176986694,-0.2236243337392807,0.00569877028465271,-0.04066199064254761,-0.012215197086334229,0.6855029613955999,-0.6228528410462225,0.015561949759901971,-0.3766935989868675
1710515673434634200,132.17763427734374,-0.005938506219536066,0.09024536609649658,0.007590429857373238,-0.44744759798049927,0.8658948540687561,-0.22364500164985657,0.018294066190719604,-0.027744650840759277,-0.009478509426116943,0.6854243683941014,-0.622832544678917,0.016035080494152136,-0.3768503160906057
1710515673444653000,132.18765307617187,0.013118542730808258,0.08558925986289978,-0.004234537482261658,-0.4472649395465851,0.8659082651138306,-0.22395804524421692,0.019728779792785645,-0.019243717193603516,-0.006098449230194092,0.6853954588324087,-0.6226991594499602,0.016332009176984918,-0.3771104307348882
1710515673454672100,132.19767211914063,0.0035596578381955624,0.06419262290000916,0.008694576099514961,-0.4470537602901459,0.8659350275993347,-0.2242763787508011,0.014558523893356323,-0.02175760269165039,0.00949394702911377,0.6853999264661977,-0.622564357243154,0.016596132227786692,-0.37731338850365076
1710515673464692200,132.2076921386719,-0.051353923976421356,0.04666523635387421,0.029100514948368073,-0.4464724659919739,0.8663236498832703,-0.22393326461315155,0.01689162850379944,-0.018331408500671387,0.006953567266464233,0.6853081741941357,-0.622690227782839,0.017036637741535614,-0.37725271944969196
1710515673474711300,132.21771118164062,-0.10027938336133957,0.02599351666867733,0.040136922150850296,-0.4459350109100342,0.8668047189712524,-0.22314055263996124,0.011318802833557129,-0.017286837100982666,-0.01565919816493988,0.6850817771369364,-0.6229956013784533,0.017498716170926607,-0.37713838644222414
1710515673484730000,132.2277302246094,-0.11379919201135635,0.02427029237151146,0.04923214763402939,-0.4453887343406677,0.8672531843185425,-0.22248809039592743,0.0074766576290130615,-0.02487635612487793,-0.033111557364463806,0.6848912712944312,-0.6232442352693045,0.017960532067241165,-0.37705182160252265
1710515673494750000,132.23775,-0.10219047218561172,0.03510189801454544,0.03379353880882263,-0.44517257809638977,0.8674624562263489,-0.22210462391376495,0.005078494548797607,-0.033371150493621826,-0.03929339349269867,0.6847025890591993,-0.6233886465309081,0.018283402302483803,-0.37714030268585935
1710515673504769000,132.24776904296874,-0.06259512901306152,0.053381890058517456,0.029351385310292244,-0.44510945677757263,0.8674911856651306,-0.22211894392967224,0.00019356608390808105,-0.014173805713653564,-0.0328550785779953,0.684586950904085,-0.6233757621892705,0.018525238636540656,-0.3773596490168511
1710515673514788000,132.2577880859375,-0.013631844893097878,0.05207853764295578,0.02559979073703289,-0.44470128417015076,0.8676280379295349,-0.22240203619003296,0.0023183226585388184,0.02540808916091919,-0.019678384065628052,0.6846224292306151,-0.6232519875216189,0.018866375931315557,-0.37748293695707
1710515673524807200,132.26780712890624,0.028941446915268898,0.05929330736398697,0.0033171221148222685,-0.444336861371994,0.8676694631576538,-0.22296838462352753,0.00016862154006958008,0.01724904775619507,-0.00374642014503479,0.684757672114862,-0.6230171192296661,0.019117377299555812,-0.3776127319061038
1710515673534827000,132.2778269042969,0.05465985834598541,0.08639443665742874,-0.029130566865205765,-0.44429293274879456,0.8675327897071838,-0.22358694672584534,-0.009137392044067383,-0.010492086410522461,-0.0017698705196380615,0.6848431880217865,-0.622765102533608,0.019239425301161715,-0.3778671201927132
1710515673544846000,132.28784619140626,0.030531886965036392,0.12805986404418945,-0.05605006590485573,-0.44435596466064453,0.8672716617584229,-0.22447268664836884,-0.01458275318145752,-0.0015030503273010254,-0.0028066635131835938,0.6849118286896507,-0.6224040929287952,0.019411471004226046,-0.37832837657419505
1710515673554865200,132.297865234375,-0.06457145512104034,0.13913115859031677,-0.06992273032665253,-0.4445323646068573,0.8669431209564209,-0.22539089620113373,-0.01664939522743225,0.006164968013763428,-0.003505885601043701,0.6848597812089495,-0.6220257382188636,0.01971131460657666,-0.37902881159463503
1710515673564885200,132.30788525390625,-0.16835032403469086,0.1303502321243286,-0.07562988996505737,-0.4448956847190857,0.8666552305221558,-0.2257804274559021,-0.014485538005828857,-0.016801536083221436,-0.017093420028686523,0.6845470301721511,-0.6218564908027575,0.020106921831546738,-0.3798496515624773
1710515673574904300,132.317904296875,-0.23942343890666962,0.11408551037311554,-0.07434864342212677,-0.44538453221321106,0.8665115833282471,-0.22536729276180267,-0.0065808892250061035,-0.053065478801727295,-0.03616802394390106,0.6839450741710734,-0.6220067988508169,0.020588700104120217,-0.38066112411150993
1710515673584923100,132.3279230957031,-0.23371867835521698,0.0998079776763916,-0.06628724932670593,-0.4457899332046509,0.8665691018104553,-0.2243426889181137,-0.0018115341663360596,-0.06565028429031372,-0.04181608557701111,0.6831995676634782,-0.6224000080408714,0.02113973215229727,-0.38132651170645726
1710515673594943000,132.33794287109376,-0.17233121395111084,0.09221450239419937,-0.057418663054704666,-0.4458692669868469,0.8668274283409119,-0.22318384051322937,-0.00006890296936035156,-0.046423256397247314,-0.03789375722408295,0.6825232912847685,-0.6228438773342603,0.021762047417804475,-0.38177743600503494
1710515673604962000,132.34796215820313,-0.10954932123422623,0.06634514778852463,-0.03204432874917984,-0.4459352195262909,0.867007851600647,-0.22234974801540375,-0.004061847925186157,-0.015613079071044922,-0.03180032968521118,0.6820230224949237,-0.6231622165279072,0.022225592343201137,-0.3821251788244851
1710515673614981000,132.35798120117187,-0.019230609759688377,0.03506072610616684,-0.00620367843657732,-0.4461616277694702,0.8669692873954773,-0.2220456451177597,-0.013112753629684448,0.005543649196624756,-0.02233879268169403,0.6817583085649274,-0.6232785675220973,0.02238320487912912,-0.38239842628369586
1710515673625001200,132.36800122070312,0.05196607485413551,0.02697893977165222,0.0308893620967865,-0.44610831141471863,0.8669038414955139,-0.2224079966545105,-0.025403618812561035,0.013131678104400635,-0.013828262686729431,0.681832720618785,-0.6231314301220066,0.022432607961035973,-0.3825026767965477
1710515673635020000,132.37802001953125,0.09530901908874512,0.021934645250439644,0.05821659043431282,-0.445784330368042,0.8668645620346069,-0.22320964932441711,-0.03190743923187256,0.014925777912139893,-0.0062975287437438965,0.682141273696848,-0.62280890616486,0.02245526154002943,-0.38247658882718083
1710515673645039000,132.3880390625,0.1273103505373001,0.046267732977867126,0.06019851192831993,-0.4453442692756653,0.8667436838150024,-0.2245534509420395,-0.03596383333206177,0.022187769412994385,-0.0018866658210754395,0.6826355992749314,-0.622269247193242,0.02245573307370075,-0.38247304356732703
1710515673655058200,132.39805810546875,0.13123531639575958,0.08716323971748352,0.03209417313337326,-0.44507306814193726,0.866364598274231,-0.2265447974205017,-0.03257289528846741,0.018157005310058594,-0.007356882095336914,0.6832212704168584,-0.6214699853751803,0.02242002655141409,-0.3827286673701186
1710515673665078300,132.4080783691406,0.07660163938999176,0.11930647492408752,0.0035184568259865046,-0.4449545741081238,0.8659034371376038,-0.2285321056842804,-0.029593855142593384,-0.007809996604919434,-0.009321630001068115,0.6836827145924397,-0.6206681237518701,0.022472859053615093,-0.3832025184539038
1710515673675097300,132.41809741210938,0.04448046162724495,0.13489902019500732,-0.0435318760573864,-0.4450158178806305,0.8654599785804749,-0.23008762300014496,-0.022376269102096558,-0.028698325157165527,-0.00981074571609497,0.6839072050978042,-0.6200357985951972,0.022622876434492296,-0.38381631866529575
1710515673685116200,132.4281162109375,0.04613055661320686,0.13618724048137665,-0.06631095707416534,-0.4452816843986511,0.8649873733520508,-0.2313469797372818,-0.01913490891456604,-0.039944469928741455,-0.010489284992218018,0.6839671235003095,-0.6195219169638426,0.02278386652816079,-0.3845291955288348
1710515673695136000,132.43813598632812,0.1533086597919464,0.15259923040866852,-0.09086902439594269,-0.44571277499198914,0.8643431663513184,-0.2329190969467163,-0.015301138162612915,-0.04975259304046631,-0.016500771045684814,0.6841177980154388,-0.6188870170354502,0.022788388149104374,-0.3852824806487969
1710515673705155000,132.44815502929688,0.15442906320095062,0.16474825143814087,-0.0856095477938652,-0.4462563991546631,0.8635090589523315,-0.23496286571025848,-0.013109564781188965,-0.029219388961791992,-0.0050728172063827515,0.6843754320108644,-0.6180640314565456,0.022702827907679378,-0.3861500507929384
1710515673715174100,132.45817407226562,0.1771697998046875,0.15396511554718018,-0.05926689878106117,-0.44671738147735596,0.8627175688743591,-0.23698566854000092,-0.02729704976081848,0.00338667631149292,-0.004331827163696289,0.6846662848683848,-0.6172486356006608,0.02261173978065682,-0.38694323293813077
1710515673725194200,132.4681943359375,0.1181541457772255,0.14113757014274597,0.004685187712311745,-0.44674038887023926,0.8621976971626282,-0.23882703483104706,-0.02295568585395813,0.03402739763259888,-0.016070708632469177,0.684999943955829,-0.616499163538998,0.022699356324375752,-0.38754190370802016
1710515673735213000,132.47821313476564,0.09969577938318253,0.10666508227586746,0.05407803878188133,-0.4463159441947937,0.8620429635047913,-0.24017521739006042,-0.01892465353012085,0.03798156976699829,-0.01652306318283081,0.6853202534263395,-0.6159426885279933,0.022956311156488513,-0.38784517773789534
1710515673745232100,132.48823217773437,0.08179374784231186,0.09643854200839996,0.07646883279085159,-0.44575387239456177,0.8619980812072754,-0.24137753248214722,-0.014115631580352783,0.025331199169158936,-0.009217262268066406,0.6856656967094776,-0.6154445858582617,0.023220517982533107,-0.3880096650935769
1710515673755252200,132.49825219726563,0.11134923994541168,0.10219097137451172,0.08388573676347733,-0.4451538622379303,0.8619565367698669,-0.2426297962665558,-0.004751622676849365,0.007306277751922607,-0.01065056025981903,0.6860422321797337,-0.6149259048188983,0.023478295726651503,-0.3881508868004815
1710515673765271300,132.50827124023436,0.1542399823665619,0.0952150896191597,0.08393607288599014,-0.4445475935935974,0.8617945909500122,-0.24431072175502777,-0.00015467405319213867,0.0012426376342773438,0.005846694111824036,0.6865644152583176,-0.6142353977247831,0.023654123331354422,-0.3883102100865756
1710515673775290000,132.5182900390625,0.20218805968761444,0.08336509019136429,0.07626111060380936,-0.44400903582572937,0.8614842295646667,-0.2463759481906891,0.001336216926574707,0.014217853546142578,0.012184381484985352,0.6872295241669686,-0.6133931078682392,0.02368371076461592,-0.3884632223621863
1710515673785309200,132.52830908203126,0.23838095366954803,0.08146758377552032,0.07051800191402435,-0.4434593617916107,0.8611094951629639,-0.24866525828838348,-0.005805283784866333,0.017217040061950684,0.011009946465492249,0.6880008613402661,-0.6124615460767778,0.02362674191916014,-0.3885711742498324
1710515673795329000,132.5383291015625,0.20515695214271545,0.07699321210384369,0.08015544712543488,-0.4428805410861969,0.8607836961746216,-0.2508154809474945,-0.013952434062957764,-0.009587287902832031,0.0011210143566131592,0.6887424296550383,-0.6115846841842428,0.023588708336385454,-0.38864088426152643
1710515673805348000,132.54834814453125,0.17755354940891266,0.07670974731445312,0.061003055423498154,-0.44214555621147156,0.8606065511703491,-0.25271281599998474,-0.025048106908798218,-0.021983444690704346,-0.0018492043018341064,0.6894254238808301,-0.6108055616552869,0.023667497734940042,-0.38865028258067735
1710515673815367200,132.5583671875,0.1550746113061905,0.08537939190864563,0.042053066194057465,-0.4415483772754669,0.860403835773468,-0.25444138050079346,-0.022685110569000244,-0.007361114025115967,-0.012831240892410278,0.6899993580724372,-0.6100939813505064,0.023762332391705422,-0.3887436838393167
1710515673825387000,132.56838696289063,0.11189784854650497,0.08465816080570221,0.046024370938539505,-0.4409925043582916,0.8602815866470337,-0.2558152973651886,-0.017427414655685425,-0.017706334590911865,-0.022138535976409912,0.6904358003300428,-0.6095243480921149,0.02392515314684735,-0.3888524406711032
1710515673835406000,132.57840600585936,0.1585678905248642,0.08348716795444489,0.02373557724058628,-0.44050925970077515,0.8601037263870239,-0.2572419345378876,-0.014034926891326904,-0.041301727294921875,-0.01743122935295105,0.690867646961491,-0.6089336215898528,0.024059797394813676,-0.3890025987256886
1710515673845425200,132.58842504882813,0.28110310435295105,0.08618244528770447,0.012108482420444489,-0.4402056932449341,0.859635055065155,-0.2593197524547577,-0.01795479655265808,-0.02366691827774048,-0.005374163389205933,0.6915144208146613,-0.6080845909354011,0.02394278352351198,-0.38918865322496426
1710515673855445200,132.5984453125,0.2680988907814026,0.1050030067563057,0.014909062534570694,-0.4398196041584015,0.8590807914733887,-0.2617996037006378,-0.02822861075401306,-0.0062670111656188965,0.006947606801986694,0.692295009504386,-0.6070696638617669,0.02380394341635962,-0.38939377492006233
1710515673865464300,132.60846435546875,0.24355201423168182,0.11095698177814484,0.023582711815834045,-0.4394148886203766,0.8585972785949707,-0.2640557587146759,-0.036461055278778076,0.015548408031463623,0.010485529899597168,0.6929781544338157,-0.6061417375893094,0.023755175828726844,-0.38962712786744996
1710515673875483100,132.61848315429688,0.1963038146495819,0.11839332431554794,0.03472937270998955,-0.4391013979911804,0.8580582737922668,-0.2663196921348572,-0.02775663137435913,0.03314673900604248,0.007729291915893555,0.693617896612278,-0.6052090702692148,0.023709477953402603,-0.3899413157769281
1710515673885503000,132.6285029296875,0.1230626106262207,0.11623568832874298,0.0494966022670269,-0.4388926923274994,0.8576219081878662,-0.26806357502937317,-0.01656702160835266,-0.00708162784576416,0.004086792469024658,0.6940530305238335,-0.6044871335136561,0.023738643837492534,-0.3902849304550759
1710515673895522000,132.63852197265626,0.05372269079089165,0.11876195669174194,0.058538831770420074,-0.43845006823539734,0.8574631214141846,-0.2692934572696686,-0.021160095930099487,-0.02765941619873047,0.01383104920387268,0.6943463190726723,-0.6039684426840648,0.023987379478020373,-0.3905511706750132
1710515673905541000,132.648541015625,0.004726122133433819,0.11005842685699463,0.06195273622870445,-0.43797001242637634,0.8574313521385193,-0.2701739966869354,-0.021456986665725708,-0.005166828632354736,0.01269751787185669,0.6945085080764731,-0.6035891981908813,0.02435315118305034,-0.39082620151661074
1710515673915561200,132.65856127929686,0.0026717595756053925,0.09267731010913849,0.07525496184825897,-0.437538743019104,0.8574502468109131,-0.27081185579299927,-0.020392894744873047,-0.005445122718811035,0.011382251977920532,0.6946071582450866,-0.6033106304634706,0.0247053680865133,-0.39105874384044764
1710515673925580000,132.668580078125,0.08540685474872589,0.06448572874069214,0.07351166009902954,-0.4370840787887573,0.8574918508529663,-0.2714138925075531,-0.016895532608032227,-0.022576510906219482,0.00685727596282959,0.6947771769594152,-0.6030509457841593,0.02495229229605481,-0.39114161507991735
1710515673935599000,132.67859912109375,0.18285618722438812,0.08447515219449997,0.06072795018553734,-0.43673810362815857,0.8572677969932556,-0.272675484418869,-0.024626702070236206,-0.015043556690216064,0.008805543184280396,0.6951852750025116,-0.6025273026443387,0.024962202120380705,-0.3912227922133004
1710515673945618200,132.6886181640625,0.2387513965368271,0.08783770352602005,0.06864100694656372,-0.43634337186813354,0.8568902015686035,-0.2744884788990021,-0.027615457773208618,0.01133507490158081,-0.00328218936920166,0.6957748170438005,-0.6017772119189165,0.02489861483422844,-0.39133338251933814
1710515673955638300,132.69863818359374,0.23866191506385803,0.09568604081869125,0.08616460114717484,-0.4356248080730438,0.8565695881843567,-0.27662184834480286,-0.025892585515975952,0.034421682357788086,-0.010975450277328491,0.6965246199766425,-0.6008896452969656,0.02491390453354834,-0.39136229883596657
1710515673965657000,132.70865698242187,0.1943461298942566,0.10115836560726166,0.11145558208227158,-0.43477511405944824,0.8563109040260315,-0.2787519693374634,-0.024621427059173584,0.03500103950500488,-0.015742391347885132,0.6972716662337696,-0.5999982338104992,0.025022603352095732,-0.39139300528848336
1710515673975676200,132.71867626953124,0.10199861228466034,0.11221501231193542,0.14096365869045258,-0.4337981343269348,0.8562937378883362,-0.28032171726226807,-0.015512228012084961,0.013930320739746094,-0.02731040120124817,0.697849982197425,-0.5993320047372872,0.025303881763396045,-0.39136469408912866
1710515673985696000,132.72869604492186,0.024526458233594894,0.1231730580329895,0.14875127375125885,-0.4325174391269684,0.856705904006958,-0.28104066848754883,-0.005455702543258667,-0.011704504489898682,-0.023905932903289795,0.6981731215810953,-0.5990054309958217,0.025925900030555674,-0.391247676165196
1710515673995715000,132.73871508789063,-0.015582078136503696,0.11877218633890152,0.1511598378419876,-0.4312386214733124,0.857273519039154,-0.28127455711364746,-0.002126336097717285,-0.022068381309509277,-0.017476946115493774,0.6983186346161293,-0.5988752030697829,0.0266685361091189,-0.39113731691458514
1710515674005734100,132.74873413085936,-0.01689768023788929,0.10061459243297577,0.16021353006362915,-0.4299647808074951,0.8578636646270752,-0.281425416469574,0.005617767572402954,-0.032668352127075195,-0.014030247926712036,0.698452339744951,-0.5987792255816369,0.027399573290034333,-0.3909949971223855
1710515674015754200,132.75875415039062,0.021042510867118835,0.089528389275074,0.13977429270744324,-0.4288211464881897,0.8583664298057556,-0.2816378176212311,0.008365094661712646,-0.012434244155883789,-0.011757910251617432,0.6986193584733694,-0.5986624309731388,0.02800698048169472,-0.39083258937061405
1710515674025773000,132.76877294921874,0.0846494510769844,0.08376552164554596,0.11747325956821442,-0.42777952551841736,0.8586634993553162,-0.28231552243232727,0.0022575557231903076,0.010446786880493164,-0.0009636282920837402,0.6989315163624413,-0.5983578482286332,0.0284626782902629,-0.39070803898608686
1710515674035792100,132.77879223632812,0.106777124106884,0.080436572432518,0.09844816476106644,-0.42680662870407104,0.8587828874588013,-0.28342241048812866,0.0024900734424591064,-0.005984246730804443,0.005621194839477539,0.699373183406942,-0.5978789373744883,0.028802385993058895,-0.3906257878261177
1710515674045812200,132.78881225585937,0.09869123250246048,0.07078937441110611,0.10698120296001434,-0.425887793302536,0.8588443398475647,-0.2846163511276245,-0.004028767347335815,-0.01607060432434082,0.011881023645401001,0.6998378945209016,-0.5973653018088161,0.02909504326498867,-0.39055785700394713
1710515674055831300,132.79883129882813,0.04152568057179451,0.0814763754606247,0.1081809550523758,-0.42490875720977783,0.8589443564414978,-0.2857747972011566,-0.016100794076919556,0.006106972694396973,0.012230783700942993,0.7002847412484235,-0.5968631582282041,0.029444506199845094,-0.39049808079267545
1710515674065850000,132.80885009765626,-0.05422108247876167,0.09299769252538681,0.10792289674282074,-0.42390161752700806,0.8592491149902344,-0.28635355830192566,-0.01634499430656433,0.0113411545753479,0.003715306520462036,0.7004986461725504,-0.5965933743869976,0.029992744898843866,-0.39048486759614204
1710515674075870000,132.81886987304688,-0.11838515102863312,0.08730465173721313,0.10942598432302475,-0.42289504408836365,0.8598020672798157,-0.2861824631690979,-0.004503726959228516,-0.024352669715881348,0.009373068809509277,0.7004546588941287,-0.5966287359009207,0.030706919668865858,-0.3904544103432345
1710515674085889000,132.82888891601561,-0.12158866971731186,0.07977019250392914,0.09957255423069,-0.42187732458114624,0.8604825735092163,-0.2856384813785553,0.004976630210876465,-0.05639004707336426,0.019388169050216675,0.7002985888702942,-0.596816021102369,0.031486455329513996,-0.3903859470709228
1710515674095908000,132.838908203125,-0.09488914906978607,0.07347794622182846,0.09725001454353333,-0.4208458662033081,0.8611559271812439,-0.2851302921772003,0.00203782320022583,-0.03869187831878662,0.006672948598861694,0.7001722281640009,-0.5969886052396293,0.03224067315017537,-0.39028711418967704
1710515674105928200,132.84892822265624,-0.023300452157855034,0.07623260468244553,0.09017026424407959,-0.41982796788215637,0.8617356419563293,-0.284879595041275,0.003079831600189209,-0.012034595012664795,0.0014631450176239014,0.7001527840946573,-0.5970576172232412,0.03289987719729592,-0.39016154611486065
1710515674115947000,132.85894702148437,0.008876925334334373,0.08411769568920135,0.0727744996547699,-0.4189811944961548,0.8620684742927551,-0.28511926531791687,0.007421046495437622,-0.0023118257522583008,-0.0011200308799743652,0.7002548231323484,-0.5969293064302561,0.033403080614986355,-0.39013207581080966
1710515674125966000,132.86896606445313,0.04057386890053749,0.07115406543016434,0.06351415067911148,-0.4183962643146515,0.8622066378593445,-0.28555959463119507,0.0011446475982666016,-0.004601597785949707,-0.003914564847946167,0.7003928860492933,-0.5967264657928905,0.033730138077882936,-0.3901661719998744
1710515674135985200,132.87898510742187,0.023136021569371223,0.07404865324497223,0.06328032910823822,-0.4178515076637268,0.8623171448707581,-0.2860235273838043,0.0018663108348846436,-0.0017518401145935059,-0.006670266389846802,0.7005392367617814,-0.596515392480085,0.03402383414522698,-0.39020079268654706
1710515674146005200,132.88900512695312,-0.025065595284104347,0.06796573102474213,0.06978429853916168,-0.4172329902648926,0.8625514507293701,-0.28622016310691833,0.008785635232925415,-0.011766970157623291,-0.009357541799545288,0.7006036040057483,-0.5964106700035395,0.03441275649337868,-0.39021131664198233
1710515674156024300,132.8990244140625,-0.04769367724657059,0.0655963197350502,0.06705216318368912,-0.4166230857372284,0.8628703355789185,-0.2861470580101013,0.00880134105682373,-0.029023170471191406,-0.002381056547164917,0.7005813950093933,-0.5964161434040527,0.03484612578771535,-0.3902042163039851
1710515674166043100,132.90904321289062,-0.033351220190525055,0.06645023077726364,0.05141887068748474,-0.41616037487983704,0.8631413578987122,-0.2860027849674225,0.011466681957244873,-0.03352093696594238,-0.009742707014083862,0.7005072008134198,-0.5964537262189288,0.035235714082713934,-0.3902449668033768
1710515674176063000,132.91906298828124,-0.018300898373126984,0.08296103030443192,0.0480441115796566,-0.4156692624092102,0.8633309006690979,-0.2861452102661133,0.007740706205368042,-0.02727121114730835,-0.01266738772392273,0.7005067944111526,-0.5963712784212494,0.03561874844515722,-0.3903370413545125
1710515674186082000,132.92908203125,-0.024283425882458687,0.09600546211004257,0.048004165291786194,-0.41505032777786255,0.8635683655738831,-0.286327064037323,0.0038715898990631104,-0.013470470905303955,-0.013141661882400513,0.7005060528419133,-0.5962659650461265,0.03610216620951552,-0.39045487309878674
1710515674196101000,132.93910107421874,-0.0019829128868877888,0.10973512381315231,0.05418509617447853,-0.4142951965332031,0.8638224601745605,-0.286653995513916,0.00007998943328857422,0.006539046764373779,-0.016034305095672607,0.7005546265157004,-0.5960955946808021,0.03664756754485856,-0.3905769864257695
1710515674206121200,132.94912133789063,0.01705149933695793,0.12301183491945267,0.047217465937137604,-0.41357165575027466,0.8639712929725647,-0.2872496247291565,0.004086673259735107,0.007061600685119629,-0.02485334873199463,0.7006590073936039,-0.5958136096685824,0.03716623784211806,-0.3907710067220073
1710515674216140000,132.95914013671876,-0.004063640721142292,0.12566407024860382,0.05200875923037529,-0.412820965051651,0.8641131520271301,-0.28790217638015747,0.0020084381103515625,-0.0018693208694458008,-0.024048209190368652,0.700765211278032,-0.5955051133086106,0.037717079598794556,-0.3909979736669703
1710515674226159000,132.9691591796875,-0.03770522400736809,0.125313863158226,0.062016118317842484,-0.4119579493999481,0.864382266998291,-0.28833022713661194,-0.006956994533538818,0.0068184733390808105,-0.016204416751861572,0.7008150402920688,-0.5952840860535273,0.03836339773318799,-0.3911823325657546
1710515674236179200,132.97917919921875,-0.06027604639530182,0.12145309150218964,0.05954790487885475,-0.41114041209220886,0.8647183179855347,-0.2884891927242279,-0.0087815523147583,0.004544496536254883,-0.020516246557235718,0.7007725184840881,-0.5951734421212699,0.03903812801418128,-0.3913599504048846
1710515674246198300,132.9891982421875,-0.053091637790203094,0.12424466758966446,0.03848256543278694,-0.4104333817958832,0.8649867177009583,-0.2886914014816284,-0.003415614366531372,-0.008113980293273926,-0.019078075885772705,0.7007099913846173,-0.5950460612090241,0.039679772196862646,-0.3916011189773881
1710515674256217000,132.9992170410156,-0.05689516291022301,0.12156259268522263,0.024780601263046265,-0.4098983407020569,0.8651636838912964,-0.2889212965965271,-0.003340303897857666,-0.00874871015548706,-0.008762121200561523,0.7006204602958825,-0.5949110397593245,0.04025178210500719,-0.39190800145039395
1710515674266237000,133.00923681640626,-0.06159670650959015,0.11041252315044403,0.033156510442495346,-0.4093727767467499,0.8653789758682251,-0.28902143239974976,-0.0053612589836120605,-0.012717664241790771,-0.007700681686401367,0.7004979051947408,-0.5948296570805264,0.04082849884928985,-0.39219070147851715
1710515674276256000,133.01925610351563,-0.03339915722608566,0.10335461050271988,0.029592402279376984,-0.4087890684604645,0.8656107187271118,-0.28915339708328247,-0.0013215243816375732,-0.01709991693496704,-0.006225913763046265,0.7004263608850699,-0.5947362822524163,0.041376909801076035,-0.3924025061611172
1710515674286275000,133.02927514648437,-0.019649790599942207,0.10129274427890778,0.025262899696826935,-0.4082125425338745,0.8657510280609131,-0.2895475924015045,-0.0009519457817077637,-0.018750786781311035,-0.0039243996143341064,0.7004368532809112,-0.5945358592187793,0.041872692008640564,-0.39263477734091007
1710515674296295200,133.03929516601562,-0.021995235234498978,0.1092955470085144,0.008949174545705318,-0.4077615737915039,0.8657999634742737,-0.2900364100933075,-0.005065113306045532,-0.00804227590560913,-0.00616687536239624,0.7004493125454133,-0.5942995343353408,0.04230664757061396,-0.3929238187184334
1710515674306314000,133.04931396484375,-0.021426917985081673,0.10886789113283157,-0.009680435992777348,-0.4075027406215668,0.8658061027526855,-0.29038146138191223,-0.0021653175354003906,0.0016561150550842285,-0.0022818148136138916,0.7003708686564756,-0.59412598314483,0.04270338518196632,-0.3932828775423745
1710515674316333000,133.0593330078125,0.004106138367205858,0.11118350923061371,-0.012902061454951763,-0.40735161304473877,0.865696907043457,-0.2909189760684967,-0.0009126961231231689,-0.007633984088897705,0.0007886290550231934,0.700329378674812,-0.5938764734393702,0.04302610001796803,-0.39369844090223843
1710515674326352100,133.06935205078125,-0.008594210259616375,0.10574033111333847,-0.01755700074136257,-0.40722471475601196,0.8655529618263245,-0.2915242910385132,0.0017833709716796875,-0.014051258563995361,-0.0008795857429504395,0.7003074062532119,-0.5936001283687007,0.04332140042388624,-0.39412164867955735
1710515674336372200,133.07937231445314,-0.028413455933332443,0.10271631181240082,-0.025779511779546738,-0.40720123052597046,0.8654454350471497,-0.2918757498264313,-0.0023142099380493164,-0.007352113723754883,0.001455545425415039,0.7001934360695966,-0.5934309330153259,0.04361020645827171,-0.3945466729522904
1710515674346391300,133.08939135742187,-0.03530145436525345,0.08923805505037308,-0.02032375894486904,-0.40721598267555237,0.8653846383094788,-0.29203543066978455,-0.0008499026298522949,-0.012555599212646484,0.0009743273258209229,0.7000258657670979,-0.5933424439258467,0.04389793833841244,-0.3949450852051932
1710515674356410000,133.09941015625,-0.015339996665716171,0.08645238727331161,-0.020771436393260956,-0.40722471475601196,0.8653098344802856,-0.29224520921707153,0.006605058908462524,-0.018904566764831543,0.0017028748989105225,0.699895435001561,-0.5932354842252642,0.04414802708940214,-0.39530906705220964
1710515674366431500,133.10943139648438,-0.02297315001487732,0.0845637246966362,-0.007936597801744938,-0.40718525648117065,0.8652392029762268,-0.2925094962120056,0.005985736846923828,-0.01257777214050293,0.0062853991985321045,0.6997977145262683,-0.5931055062685647,0.044397200628965225,-0.3956491552032305
1710515674376450600,133.11945043945312,-0.025944704189896584,0.08039001375436783,0.00480875838547945,-0.40701279044151306,0.8652650713920593,-0.29267266392707825,0.000014930963516235352,-0.008880555629730225,0.004602223634719849,0.699703843502618,-0.5930137972924406,0.044702442929427134,-0.39591804318901047
1710515674386469600,133.1294697265625,-0.027416633442044258,0.07138427346944809,0.013632343150675297,-0.4067237079143524,0.8653781414031982,-0.29274049401283264,0.00001576542854309082,0.0021758675575256348,-0.002608388662338257,0.6996207438507919,-0.5929593296496005,0.04504433972734729,-0.39610779246066624
1710515674396489700,133.13948974609374,-0.04026185721158981,0.06730803847312927,0.030383627861738205,-0.4063666760921478,0.8655501008033752,-0.29272764921188354,0.004480570554733276,0.011311650276184082,-0.003368854522705078,0.6995449741590368,-0.59293772520367,0.045398611953114454,-0.3962333515074564
1710515674406508800,133.1495087890625,-0.043704524636268616,0.06664779037237167,0.025401385501027107,-0.40597373247146606,0.8657587170600891,-0.2926560342311859,0.006254374980926514,-0.0016227960586547852,0.0023731589317321777,0.6994558807884914,-0.5929385240857774,0.04578081566177821,-0.3963455247361815
1710515674416527600,133.15952758789064,-0.056296221911907196,0.0698813945055008,0.028767354786396027,-0.4056010842323303,0.8659845590591431,-0.29250451922416687,0.012473523616790771,-0.006502509117126465,0.00016164779663085938,0.6993391216001079,-0.5929724156473887,0.04616770453868183,-0.3964559299631628
1710515674426547500,133.16954736328125,-0.06464176625013351,0.06963483989238739,0.022324368357658386,-0.4052353799343109,0.8662410974502563,-0.29225170612335205,0.015571534633636475,0.0033269524574279785,-0.011535286903381348,0.6991791628857624,-0.5930462986983949,0.04658579803642727,-0.3965786586753487
1710515674436566500,133.17956640625,-0.05187563598155975,0.07500644028186798,0.019054006785154343,-0.40488651394844055,0.8664636611938477,-0.29207533597946167,0.016824841499328613,-0.00130540132522583,-0.0063100457191467285,0.6990329971738138,-0.5930885016373126,0.04699327447025833,-0.3967251123809319
1710515674446585600,133.18958569335936,-0.036546215415000916,0.08279351890087128,0.01124402042478323,-0.4045470654964447,0.8666458129882812,-0.2920050323009491,0.012792795896530151,-0.015312016010284424,-0.005174875259399414,0.6989063181225451,-0.5930861681449021,0.047394978959539265,-0.3969038396157468
1710515674456605700,133.19960571289062,-0.04489415884017944,0.07932209223508835,0.019126711413264275,-0.4042384922504425,0.8667997717857361,-0.29197582602500916,0.006441652774810791,-0.006829380989074707,0.004973500967025757,0.6987867763455732,-0.5930678547763416,0.047776635204197705,-0.39709607920291107
1710515674466624500,133.20962451171874,-0.06021852046251297,0.08366027474403381,0.017999129369854927,-0.4038549065589905,0.8670176267623901,-0.29185932874679565,0.009369343519210815,0.005220651626586914,0.006169259548187256,0.6986478739602212,-0.5930816187299155,0.04821344367076686,-0.3972668689718987
1710515674476643600,133.2196435546875,-0.06002144515514374,0.08798737823963165,-0.00009598524775356054,-0.40347933769226074,0.8672471642494202,-0.29169660806655884,0.015005737543106079,-0.007673680782318115,0.004038184881210327,0.6984741926828885,-0.5931117878925265,0.048683739253744716,-0.3974697764856272
1710515674486663700,133.22966357421876,-0.04643639922142029,0.08181411772966385,-0.007628736086189747,-0.4032498896121979,0.8673937320709229,-0.29157817363739014,0.0113125741481781,-0.0309983491897583,0.015119761228561401,0.6982895303862003,-0.5931288071518885,0.04908285473603954,-0.39771967261002067
1710515674496682800,133.23968286132813,-0.018128328025341034,0.08078933507204056,-0.00849053543061018,-0.4030340313911438,0.867469072341919,-0.29165273904800415,0.008289039134979248,-0.02774721384048462,0.001430809497833252,0.6981697911197173,-0.593068554402256,0.049429996144002585,-0.3979768294385907
1710515674506701600,133.24970166015626,0.005239313468337059,0.0745154544711113,-0.0036070968490093946,-0.4027554392814636,0.8674679398536682,-0.29204079508781433,0.015395641326904297,-0.005941212177276611,-0.009747296571731567,0.698168243293649,-0.5928797463216975,0.04973131084501277,-0.3982233115810815
1710515674516721400,133.25972143554688,-0.004120632540434599,0.066083624958992,0.006177622824907303,-0.4024156928062439,0.867503821849823,-0.2924024164676666,0.014476090669631958,0.001194596290588379,-0.0029159486293792725,0.6981922066290026,-0.5927022254621227,0.05002867049659645,-0.39840827759761344
1710515674526740500,133.26974047851562,-0.001129369717091322,0.06018903851509094,0.015480311587452888,-0.4021056890487671,0.8675408959388733,-0.2927188277244568,0.008993357419967651,-0.003603219985961914,0.007593363523483276,0.6982167843818813,-0.5925464558817574,0.05029196933483676,-0.3985637596816057
1710515674536759600,133.27975952148438,-0.019084934145212173,0.055275239050388336,0.022995484992861748,-0.40176713466644287,0.8676550388336182,-0.29284507036209106,0.009005814790725708,0.0014705061912536621,0.005415558815002441,0.698207004887393,-0.5924692922550062,0.050572688239238564,-0.39865994653201464
1710515674546779600,133.28977954101563,-0.041175588965415955,0.05284537002444267,0.022072700783610344,-0.4013417065143585,0.8678864240646362,-0.2927427887916565,0.009068548679351807,0.005984663963317871,0.0006287992000579834,0.6981474588995651,-0.5924824193115947,0.05092329858918877,-0.39870014043216156
1710515674556798500,133.29979858398437,-0.05276406928896904,0.04711904004216194,0.008472202345728874,-0.4010017216205597,0.8681211471557617,-0.2925128638744354,0.004135698080062866,0.002896606922149658,0.007768839597702026,0.6980276253239225,-0.5925495633764445,0.05126969093566196,-0.39876583324590653
1710515674566817500,133.30981762695313,-0.04808675870299339,0.04580402374267578,-0.00863780826330185,-0.4009091854095459,0.8682657480239868,-0.29221028089523315,-0.00091591477394104,-0.00995868444442749,0.009755134582519531,0.697845926715507,-0.5926555990773298,0.05151888551283508,-0.3988941193968133
1710515674576837600,133.3198376464844,-0.05287565663456917,0.043609313666820526,-0.022525394335389137,-0.4009523093700409,0.8683120012283325,-0.2920135259628296,-0.0028869211673736572,-0.014475643634796143,0.006491333246231079,0.6976605524226293,-0.5927219321966019,0.051710218467796304,-0.3990949698012829
1710515674586856700,133.32985668945312,-0.05811356008052826,0.04055435210466385,-0.0322086475789547,-0.4009925127029419,0.8683656454086304,-0.29179874062538147,-0.006691962480545044,-0.0035125017166137695,0.0013479292392730713,0.6974674991354635,-0.5927950610442747,0.05190997519460838,-0.3992978258690341
1710515674596875800,133.3398757324219,-0.05744563788175583,0.05396123602986336,-0.041944365948438644,-0.4010646939277649,0.8684284687042236,-0.2915123999118805,-0.004086792469024658,0.0006512999534606934,0.0011226534843444824,0.6972338060470339,-0.5928966495761206,0.05212828676248389,-0.3995265467956202
1710515674606895600,133.3498955078125,-0.042984407395124435,0.05501275509595871,-0.038272932171821594,-0.401233434677124,0.8684325814247131,-0.29126808047294617,0.0027042031288146973,-0.008645296096801758,0.0057000815868377686,0.6969853184594781,-0.5929832872479094,0.05231429002656973,-0.3998072406774809
1710515674616914400,133.35991455078124,-0.03905491530895233,0.040252186357975006,-0.02578963153064251,-0.40130943059921265,0.868462324142456,-0.29107457399368286,0.00584721565246582,-0.011040151119232178,0.0027752816677093506,0.6967901773543266,-0.5930486002703057,0.0524983562591493,-0.4000263378141433
1710515674626933500,133.36993359375,-0.025585977360606194,0.03782887011766434,-0.01833304576575756,-0.4013248383998871,0.8684946894645691,-0.2909565269947052,0.004001051187515259,-0.0016579031944274902,-0.008359640836715698,0.696650233155,-0.5930837904951767,0.05266266008100626,-0.40019619700439873
1710515674636952600,133.37995263671874,-0.025239765644073486,0.03080158680677414,-0.0042688921093940735,-0.4012981355190277,0.8685503602027893,-0.2908271253108978,0.0021128058433532715,0.0016585588455200195,-0.009206175804138184,0.6965346443417189,-0.5931246560476818,0.052816492449901664,-0.40031648485366345
1710515674646972700,133.38997265625,-0.01876189187169075,0.024637434631586075,-0.0031714036595076323,-0.4012865126132965,0.8685933351516724,-0.2907150089740753,-0.0010726451873779297,-0.0028246045112609863,-0.005747765302658081,0.6964409723493992,-0.5931615754360531,0.052932405860361124,-0.4004095418299857
1710515674656991500,133.39999145507812,-0.02148044854402542,0.017972342669963837,0.0023908743169158697,-0.40129274129867554,0.8686253428459167,-0.29061031341552734,0.001359790563583374,0.0005612373352050781,-0.006630599498748779,0.696359056559341,-0.5931978361665672,0.05302051070817084,-0.4004864341992203
1710515674667010600,133.4100104980469,-0.021744366735219955,0.016504352912306786,0.004470271058380604,-0.4012565612792969,0.8686843514442444,-0.2904840409755707,0.007839053869247437,0.0030199289321899414,-0.005765080451965332,0.6962878995890911,-0.5932425142270678,0.05311592250146786,-0.4005313894373365
1710515674677030700,133.42003076171875,-0.01624147780239582,0.016986917704343796,0.0032481460366398096,-0.40120458602905273,0.8687421679496765,-0.2903828024864197,0.007832884788513184,-0.0035533905029296875,-0.0033333301544189453,0.696228590372748,-0.5932766183474473,0.05321134584013359,-0.4005712542941425
1710515674687049700,133.4300498046875,-0.018193308264017105,0.01939164474606514,-0.009493215940892696,-0.40118977427482605,0.8687740564346313,-0.2903076410293579,0.005193561315536499,-0.005736827850341797,-0.004735976457595825,0.6961656987665756,-0.5933008822719962,0.05329388437573754,-0.400633578632666
1710515674697068500,133.4400686035156,-0.03433632478117943,0.020214028656482697,-0.010587508790194988,-0.40122026205062866,0.868807852268219,-0.29016467928886414,0.008794575929641724,-0.00012481212615966797,-0.005535125732421875,0.6960647447702253,-0.5933530822984162,0.05338333349395316,-0.4007198891956965
1710515674707088400,133.45008837890626,-0.025333242490887642,0.02740456536412239,-0.0038387917447835207,-0.40118831396102905,0.8688616752624512,-0.2900475263595581,0.014637291431427002,-0.002482771873474121,0.00017660856246948242,0.6959691291499128,-0.5933906267905621,0.05351447889705195,-0.4008128486748766
1710515674717107500,133.460107421875,-0.009164925664663315,0.03300412744283676,-0.005475037731230259,-0.40111058950424194,0.8688788414001465,-0.29010364413261414,0.010302364826202393,-0.004941284656524658,0.006031036376953125,0.6959274573697637,-0.5933552332675681,0.05364466254016732,-0.40092019337310386
1710515674727126500,133.47012646484376,0.0013052918948233128,0.04116448014974594,-0.008437538519501686,-0.40107008814811707,0.8688428997993469,-0.2902672290802002,0.0030139684677124023,0.0024341344833374023,0.00022846460342407227,0.695902605599117,-0.5932764073227389,0.05375395274556599,-0.401065272967233
1710515674737146600,133.48014672851562,0.007715254556387663,0.04905223101377487,-0.006149883382022381,-0.4009895324707031,0.868789553642273,-0.29053813219070435,0.0003546774387359619,0.008240044116973877,-0.0021404027938842773,0.6959056117289241,-0.5931509171460215,0.053878790659670835,-0.4012289521641967
1710515674747165700,133.49016577148439,0.0059469155967235565,0.04915705323219299,-0.009855405427515507,-0.40084609389305115,0.8687575459480286,-0.29083171486854553,-0.0015740692615509033,-0.0008221864700317383,-0.0045629143714904785,0.6959179294581508,-0.5930126042778233,0.05403881267638064,-0.4013905101872204
1710515674757184500,133.5001845703125,0.005315479822456837,0.04492262750864029,-0.0034928470849990845,-0.4007306396961212,0.8687194585800171,-0.291104257106781,-0.0031390786170959473,-0.006429851055145264,-0.0076625049114227295,0.6959239407651143,-0.592884529512586,0.05418303536829365,-0.401549668077926
1710515674767204600,133.51020458984374,-0.0009027346968650818,0.039107345044612885,-0.004617500118911266,-0.4006156027317047,0.8687006831169128,-0.2913185656070709,-0.003482997417449951,-0.00007867813110351562,-0.015962600708007812,0.6959236028014922,-0.5927815741092604,0.05432048551539304,-0.40168372235318395
1710515674777223700,133.5202236328125,-0.011339928954839706,0.03546520695090294,-0.008748595602810383,-0.4005243480205536,0.8686941862106323,-0.2914632260799408,0.0008203089237213135,-0.0027730464935302734,-0.016580909490585327,0.6959012433744587,-0.5927082221264321,0.05445505660140551,-0.40181240386730593
1710515674787242800,133.53024267578124,-0.01996857114136219,0.02503477782011032,0.006617045029997826,-0.4003547132015228,0.8687811493873596,-0.2914372384548187,0.006220072507858276,-0.012350916862487793,-0.007497429847717285,0.6958544345789867,-0.5927028232584596,0.054632809231708344,-0.401877347318914
1710515674797262600,133.5402626953125,-0.010207020677626133,0.016931844875216484,0.012658159248530865,-0.40016117691993713,0.8689005374908447,-0.291346937417984,0.01145869493484497,-0.008274197578430176,-0.005283623933792114,0.6958195268078406,-0.5927262499447024,0.0547917065157908,-0.4018815167476271
1710515674807281400,133.55028149414062,0.0028749597258865833,0.010355646722018719,0.016285117715597153,-0.39999499917030334,0.8689788579940796,-0.29134151339530945,0.011841833591461182,0.001306295394897461,-0.002252548933029175,0.6958283735556189,-0.5927193806552586,0.05489054900459551,-0.40186284549900475
1710515674817300500,133.56030053710938,0.014238135889172554,0.01918935216963291,0.025370758026838303,-0.3997615873813629,0.869042158126831,-0.29147326946258545,0.009762108325958252,0.0077432990074157715,0.0004578828811645508,0.6958907687765591,-0.5926542623311019,0.05499360101217759,-0.4018368710537897
1710515674827320600,133.57032055664064,0.030610717833042145,0.023105157539248466,0.021294524893164635,-0.3995019793510437,0.869061291217804,-0.2917723059654236,0.007076263427734375,0.002322673797607422,0.0029999911785125732,0.696003591117767,-0.592519558418703,0.0550855593335399,-0.4018276479958796
1710515674837339600,133.58033959960937,0.047222718596458435,0.04256807267665863,0.014776436612010002,-0.3992973864078522,0.8689743280410767,-0.292310893535614,0.004552334547042847,0.007475554943084717,-0.002061396837234497,0.6961560026372732,-0.5922865994634416,0.05514645752737979,-0.4018987345226245
1710515674847358500,133.5903583984375,0.038849204778671265,0.051266755908727646,0.013666165992617607,-0.39904293417930603,0.8688637018203735,-0.2929862439632416,0.003779172897338867,0.013552248477935791,-0.018796324729919434,0.6963277701373609,-0.5919918691497943,0.055249497977358106,-0.4020211153263837
1710515674857378600,133.60037866210936,0.012052479200065136,0.04953436926007271,0.014772709459066391,-0.3987827003002167,0.8688041567802429,-0.29351678490638733,0.0028780102729797363,0.0033426284790039062,-0.012909948825836182,0.6964425039411198,-0.591753597722551,0.05540117811900516,-0.40215231894469494
1710515674867397600,133.61039770507813,-0.018144572153687477,0.03244102746248245,0.011565997265279293,-0.3985269069671631,0.8688602447509766,-0.2936980724334717,-0.00036853551864624023,-0.013665914535522461,-0.011752098798751831,0.6964628148401731,-0.5916588745877116,0.05559438938073767,-0.4022298884477068
1710515674877416700,133.62041674804686,-0.02435160055756569,0.024271516129374504,-0.004791404586285353,-0.39838293194770813,0.8689351677894592,-0.293671578168869,0.004217803478240967,-0.016655325889587402,-0.016005247831344604,0.6964156842742603,-0.5916550139970994,0.05575448510091802,-0.4022948514004754
1710515674887436500,133.6304365234375,-0.04212474077939987,0.019797617569565773,-0.008423689752817154,-0.3983132243156433,0.8690314888954163,-0.29348111152648926,0.0051704347133636475,-0.019803404808044434,-0.012823522090911865,0.6963100546287648,-0.5917211884427104,0.05590603822081203,-0.40235935206216894
1710515674897455400,133.64045532226564,-0.04277987778186798,0.012250752188265324,-0.01065728347748518,-0.3982912600040436,0.8691549897193909,-0.2931451201438904,0.0027527809143066406,-0.027220547199249268,0.00006985664367675781,0.6961629294403486,-0.5918497879195088,0.05604700089015736,-0.4024052681783274
1710515674907474400,133.65047436523437,-0.03435390070080757,0.010560018010437489,-0.013325770385563374,-0.398337721824646,0.8692424297332764,-0.29282259941101074,0.0010139942169189453,-0.01900726556777954,0.003104269504547119,0.6960158455402292,-0.5919767278596889,0.05614487124999207,-0.4024593798264891
1710515674917494500,133.66049462890626,-0.022927075624465942,0.008022292517125607,-0.008408776484429836,-0.39837655425071716,0.8692964315414429,-0.29260921478271484,0.0019378364086151123,-0.002169787883758545,0.0002511143684387207,0.6959124954690326,-0.5920603811010502,0.056212912592196844,-0.4025054747688721
1710515674927513600,133.670513671875,-0.03169207274913788,0.014788106083869934,-0.0025562134105712175,-0.3983280062675476,0.8693525195121765,-0.29250845313072205,0.00010406970977783203,0.003938615322113037,-0.002687782049179077,0.6958488132479572,-0.5920934804224779,0.05631238819906135,-0.40255284213437376
1710515674937532700,133.68053271484376,-0.02141120657324791,0.028085002675652504,-0.007818353362381458,-0.3982841968536377,0.8693938851356506,-0.2924451529979706,-0.004441112279891968,-0.005258023738861084,-0.007466048002243042,0.6957806743654537,-0.5921094399308301,0.056425415009765126,-0.4026313340537499
1710515674947552800,133.690552734375,-0.03370222449302673,0.04043471813201904,0.0032968821469694376,-0.3982430100440979,0.8694096803665161,-0.2924543023109436,-0.01032644510269165,-0.005624711513519287,-0.01414024829864502,0.6957052077440409,-0.5920920861316152,0.05656686856110786,-0.40276735826617216
1710515674957571600,133.70057153320312,-0.047970645129680634,0.04669154807925224,0.010040538385510445,-0.3980502188205719,0.8695139288902283,-0.2924067974090576,-0.012777507305145264,0.0020224452018737793,-0.021283060312271118,0.6956205834392545,-0.5920888869259255,0.056809740931943215,-0.40288399725734714
1710515674967590700,133.71059057617188,-0.03749829903244972,0.059277117252349854,-0.003310686908662319,-0.39787423610687256,0.8696101903915405,-0.2923601567745209,-0.009764432907104492,-0.0010644793510437012,-0.01807957887649536,0.6955109784327553,-0.5920827588844303,0.05707820473277097,-0.4030443992136663
1710515674977610500,133.72061059570314,-0.023530814796686172,0.06585592776536942,-0.006539236754179001,-0.3977929651737213,0.8696301579475403,-0.2924117147922516,-0.0076027512550354,-0.009140968322753906,-0.011955112218856812,0.695397764972069,-0.5920382399500498,0.057313727284744834,-0.4032717800602292
1710515674987629600,133.73062963867187,-0.019504383206367493,0.04932008683681488,-0.0067000919952988625,-0.3977249562740326,0.8696427345275879,-0.2924667298793793,-0.003184586763381958,-0.008940041065216064,-0.0024396181106567383,0.6952966389732197,-0.5919947039719305,0.05752311387679899,-0.40348012761096014
1710515674997648400,133.7406484375,-0.005681777372956276,0.033055633306503296,0.0014710186515003443,-0.3976370394229889,0.8696630597114563,-0.292525976896286,-0.0034709274768829346,-0.006839275360107422,-0.0014190971851348877,0.6952412756506364,-0.5919544144895953,0.05768004328537409,-0.40361228348938805
1710515675007668500,133.75066845703125,0.001861094031482935,0.021364249289035797,0.006450330838561058,-0.39752066135406494,0.8696794509887695,-0.292635440826416,-0.0018478035926818848,0.0007279515266418457,-0.006390780210494995,0.6952421934856349,-0.5918977329820162,0.057787171514917045,-0.40367852432434875
1710515675017687600,133.7606875,0.013834399171173573,0.015649106353521347,0.022208521142601967,-0.3973628878593445,0.8696884512901306,-0.2928222119808197,0.00017651915550231934,0.00436556339263916,-0.004205077886581421,0.6953004558589866,-0.5918118561719786,0.057858689544603034,-0.40369352557193433
1710515675027706600,133.77070654296875,0.011453000828623772,0.015896033495664597,0.030391614884138107,-0.39715489745140076,0.8696929812431335,-0.2930908501148224,0.0028829574584960938,0.0064362287521362305,0.0026858747005462646,0.6954020399684216,-0.5916920691187556,0.057922963494781425,-0.40368496710128465
1710515675037726700,133.78072680664062,-0.0008497382514178753,0.0397944413125515,0.037414636462926865,-0.39682695269584656,0.869752049446106,-0.2933598458766937,-0.0026634931564331055,0.01023775339126587,0.0033058226108551025,0.6955017222155981,-0.5915638261125911,0.05807165149542731,-0.40367986937159756
1710515675047745500,133.79074560546874,-0.0036822757683694363,0.060864679515361786,0.03216714411973953,-0.3964112102985382,0.8698556423187256,-0.29361486434936523,-0.0072144269943237305,0.003222048282623291,-0.0024969279766082764,0.6955613088399055,-0.5914301229737398,0.05833505375816004,-0.40373530027227394
1710515675057764600,133.8007646484375,0.002842468675225973,0.0651976466178894,0.03268779441714287,-0.39601585268974304,0.8699226975440979,-0.29394927620887756,-0.010707318782806396,-0.004077792167663574,-0.00013309717178344727,0.6956180192513866,-0.5912616063575608,0.058609509382986,-0.4038445157013565
1710515675067784400,133.81078442382812,-0.016938161104917526,0.07472547888755798,0.029958851635456085,-0.39556390047073364,0.8700502514839172,-0.29418036341667175,-0.017552673816680908,-0.00679934024810791,-0.012734651565551758,0.6956402908888599,-0.5911304974370843,0.05894536086374696,-0.40394924348335753
1710515675077803500,133.8208034667969,-0.016739755868911743,0.07435768842697144,0.018528033047914505,-0.3951839506626129,0.8701730966567993,-0.29432788491249084,-0.013232946395874023,-0.00805121660232544,-0.017729371786117554,0.6956066743058382,-0.5910334585337315,0.05929177563814038,-0.4040984979059175
1710515675087822600,133.83082250976562,-0.01262357272207737,0.06731294095516205,0.01130553986877203,-0.39485734701156616,0.8702631592750549,-0.2944994866847992,-0.009531199932098389,-0.0056694746017456055,-0.021296143531799316,0.6955771135212068,-0.5909296570393306,0.05960203207742571,-0.4042553733070387
1710515675097842400,133.84084252929688,-0.01352851465344429,0.05436304956674576,0.0048052966594696045,-0.39461830258369446,0.8703241944313049,-0.2946397364139557,-0.008732646703720093,-0.009346842765808105,-0.024055063724517822,0.6955371865540747,-0.5908442535287985,0.05985979075994142,-0.4044109061585785
1710515675107861500,133.85086157226561,-0.01569925621151924,0.0403485931456089,0.006366441026329994,-0.3944108784198761,0.8704107999801636,-0.29466167092323303,-0.00288236141204834,-0.011417090892791748,-0.011597216129302979,0.6954837864958745,-0.59081217286232,0.06008439055841897,-0.4045162952849255
1710515675117880600,133.86088061523438,-0.005800554063171148,0.0280008465051651,0.013179339468479156,-0.39424094557762146,0.8704873919487,-0.2946627140045166,0.004058361053466797,-0.003726959228515625,-0.0025476813316345215,0.6954485579428119,-0.5907947214131803,0.06025142128875544,-0.40457747294208846
1710515675127900700,133.87090063476563,-0.010453362949192524,0.013215189799666405,0.02939293161034584,-0.39402204751968384,0.8705845475196838,-0.2946682572364807,0.0081271231174469,0.008001446723937988,0.0031340718269348145,0.6954554998567364,-0.590778115907086,0.06039114848852124,-0.40456877135636116
1710515675137919700,133.88091967773437,0.009862560778856277,0.015454907901585102,0.04635380581021309,-0.39373087882995605,0.8706960082054138,-0.29472842812538147,0.004784226417541504,0.012284576892852783,0.011357724666595459,0.6955157372670829,-0.5907398081763692,0.060516697608166276,-0.4045025502911117
1710515675147938600,133.8909384765625,0.009786661714315414,0.012303270399570465,0.05536807328462601,-0.3933279812335968,0.8708094358444214,-0.29493093490600586,0.000887066125869751,0.00919562578201294,0.016504138708114624,0.6956460363738856,-0.5906401307341038,0.06065289743299066,-0.404403497293396
1710515675157958400,133.90095849609375,0.02088591828942299,0.013610349968075752,0.06663138419389725,-0.39285650849342346,0.8709259033203125,-0.29521527886390686,-0.005275934934616089,0.009338557720184326,0.01446908712387085,0.6958241704781609,-0.5905059445320928,0.06078728028619947,-0.4042728270327052
1710515675167977500,133.9109775390625,0.015360923483967781,0.03902004659175873,0.05922193080186844,-0.39224186539649963,0.8710830807685852,-0.2955687940120697,-0.003922164440155029,0.013636946678161621,-0.011285185813903809,0.6960206948297334,-0.5903332924339305,0.06100990006408179,-0.4041531984256494
1710515675177996500,133.92099658203125,0.02130589820444584,0.05732182413339615,0.03368062153458595,-0.3917730748653412,0.8711270093917847,-0.2960607409477234,0.0038945376873016357,-0.006456971168518066,-0.02156597375869751,0.696172593692186,-0.5901016134911782,0.061234962981698726,-0.4041958796113512
1710515675188016600,133.9310166015625,0.01908695325255394,0.057688966393470764,0.03817523643374443,-0.39133599400520325,0.8711552619934082,-0.2965552806854248,-0.0021730363368988037,-0.015991508960723877,-0.01753133535385132,0.696299492605801,-0.5898670381728534,0.06147549616776365,-0.40428323582107367
1710515675198035500,133.94103540039063,0.01448154728859663,0.05891721695661545,0.02763870730996132,-0.39087051153182983,0.8712329268455505,-0.2969406247138977,-0.001127868890762329,-0.012239217758178711,-0.023112177848815918,0.6964023335843127,-0.5896759177961851,0.06174139308238967,-0.40434432591461644
1710515675208054500,133.95105444335937,0.006892603822052479,0.042870502918958664,0.03533204644918442,-0.3904225826263428,0.8713424205780029,-0.29720860719680786,0.00391736626625061,-0.0076184868812561035,-0.012697100639343262,0.6964791899963411,-0.5895348896699087,0.06200253147988503,-0.40437769330217294
