time,seconds_elapsed,rotationRateX,rotationRateY,rotationRateZ,gravityX,gravityY,gravityZ,accelerationX,accelerationY,accelerationZ,quaternionW,quaternionX,quaternionY,quaternionZ,shot
1710515807990808800,0.034808838,-0.146492153,0.015597173944115639,-0.090840802,-0.372333735,0.8852288126945496,-0.278814495,-0.116390049,-0.087682486,0.010305583477020264,0.79962947,-0.553524397,-0.232816424,-3.44E-17,0
1710515808000828400,0.044828369,-0.193403214,0.025059811770915985,0.06218816,-0.372061074,0.8857471942901611,-0.277529448,-0.070977867,-0.060887516,-0.019101381,0.7992275950214988,-0.554181469,-0.232633132,-0.000187144,0
1710515808010847500,0.054847412,-0.177767262,0.008481102,-0.024380285,-0.371993273,0.8862589597702026,-0.275981784,0.085005969,-0.02914232,-0.004764646,0.7987431650116321,-0.554911667,-0.232555683,-0.000440376,0
1710515808020866600,0.064866455,-0.170410812,0.053316802,0.002418039,-0.371946692,0.8866915702819824,-0.274651647,-0.050706476,-0.024066567,-0.002188534,0.7983264839404856,-0.555557256,-0.232444215,-0.000732562,0
1710515808030885600,0.074885742,-0.149405658,0.055970643,-0.031322349,-0.371902883,0.8871021866798401,-0.273382604,-0.034713298,-0.016313612,0.00025031,0.7979285822491842,-0.556210368,-0.232247135,-0.001141316,0
1710515808040905700,0.084905762,-0.190199167,0.041098803,-0.022696368,-0.371987134,0.8874490857124329,-0.27213949,-0.009024888,-0.03030175,-0.003754705,0.797538347,-0.556824286,-0.232114132,-0.00156897,0
1710515808050929400,0.094929443,-0.156719759,0.035697915,-0.048755668,-0.372131318,0.8878298997879028,-0.270696849,-0.025756955,-0.091290295,-0.004388362,0.7970876405896055,-0.556921118,-0.233431875,-2.20E-17,0
1710515808060948500,0.104948486,-0.052814402,0.029797895,-0.045850158,-0.372383684,0.8879749774932861,-0.269872308,-0.007499188,-0.053700507,0.009054065,0.7968288303157026,-0.557300879,-0.233408608,-0.00036808,0
1710515808070968300,0.114968262,-0.018229261,0.028692683205008507,-0.020618038,-0.372743636,0.8878657817840576,-0.269734681,-0.023435622,-0.005526185,-0.002939641,0.7967854734035682,-0.55734915,-0.233440764,-0.000663155,0
1710515808080987400,0.124987305,-0.017350417,0.039712417870759964,-0.015497578,-0.37288627,0.8878099322319031,-0.269721687,-0.038338184,0.00617224,-0.015571684,0.7967812528327078,-0.557378536,-0.233384509,-0.000873257,0
1710515808091006200,0.135006104,-0.055141203,0.047151692,0.013313030824065208,-0.372704983,0.8879198431968689,-0.269609928,-0.035040438,-0.004725754,-0.017758578,0.7967459198166212,-0.557517456,-0.233172288,-0.001028532,0
1710515808101025300,0.145025391,-0.07550054,0.049962819,0.009088192,-0.372516751,0.888119102,-0.269213766,-0.025463045,-0.028072536,-0.007336259,0.7966213703868751,-0.557781527,-0.232965427,-0.001206804,0
1710515808111045400,0.15504541,-0.095882781,0.053578857,0.004364544,-0.372360706,0.8883525133132935,-0.268658906,-0.011535257,-0.038346231,-0.004412115,0.7964468426725146,-0.558118674,-0.23275329,-0.001441857,0
1710515808121064400,0.165064453,-0.110073164,0.048914384096860886,-0.004155974,-0.372248948,0.8886173963546753,-0.267936438,0.004710436,-0.035010099,0.009925842,0.7962194191764242,-0.558522783,-0.232559835,-0.001711335,0
1710515808131083500,0.175083496,-0.083491355,0.014977190643548965,-0.010968074,-0.372287363,0.8888355493545532,-0.267158329,0.010577738285064697,-0.030955791,0.019233853,0.7959744490006934,-0.558909866,-0.232466323,-0.001979605,0
1710515808141102300,0.185102295,0.023277435451745987,0.006412677,-0.014141497,-0.372450709,0.8888269066810608,-0.266959637,0.011915981769561768,-0.043169379,0.023795843,0.795911777,-0.558986562,-0.232495609,-0.002109825,0
1710515808151122400,0.195122314,0.04570365,0.003353238,-0.01420488,-0.372604191,0.8886508345603943,-0.267331868,0.0085904,-0.040979028,0.023725539445877075,0.7960286860034473,-0.55880431,-0.232533461,-0.002145283,0
1710515808161141500,0.205141602,0.067696571,0.000595268,-0.046103425,-0.372958869,0.8883445262908936,-0.26785475,-0.009899497,-0.00916332,0.022707313299179077,0.7961926137383829,-0.558524092,-0.232644496,-0.002237324,0
1710515808171160600,0.215160645,0.070970923,-0.011853412,-0.060228031,-0.373550355,0.8878920078277588,-0.268529564,-0.013412625,-0.008070111,0.020254075527191162,0.7964039153143107,-0.558138232,-0.232845304,-0.002394151,0
1710515808181179400,0.225179443,0.065633148,-0.020359974,-0.084356532,-0.374328256,0.8873879909515381,-0.269111693,-0.005707204,-0.037000299,0.019676536321640015,0.7965860285696674,-0.557752024,-0.233145519,-0.002588361,0
1710515808191199200,0.235199219,0.066319972,-0.029681571,-0.096377507,-0.375261426,0.886833668,-0.269638836,-0.010847002,-0.036613822,0.01931867,0.7967506150989664,-0.55735961,-0.233518417,-0.002825409,0
1710515808201218300,0.245218262,0.050939954817295074,-0.043481059,-0.105356358,-0.376272887,0.8862828016281128,-0.270040065,-0.016717285,-0.030401945,0.017858356,0.7968756097668641,-0.556996905,-0.233953881,-0.003059798,0
1710515808211237400,0.255237305,0.015141746029257774,-0.049648941,-0.103497468,-0.377331138,0.8858139514923096,-0.270101756,-0.012912363,-0.032405019,0.012121707201004028,0.7968939591566627,-0.556764627,-0.234440345,-0.003307466,0
1710515808221255700,0.265255615,0.006889408,-0.053834628,-0.0869928,-0.378341407,0.8854265809059143,-0.269958973,-0.01345858,-0.024144053,0.002518415,0.796848264,-0.556624251,-0.234925419,-0.003540605,0
1710515808231275800,0.275275879,-0.050546188,-0.07714209,-0.071127012,-0.379226804,0.8851906657218933,-0.269489616,-0.019958347,-0.021085322,-0.000956863,0.7967001728560473,-0.556630026,-0.235410712,-0.003703811,0
1710515808241294800,0.285294922,-0.094285943,-0.092663087,-0.050514951,-0.380023956,0.8851681351661682,-0.268438607,-0.020610869,-0.01793474,0.001059145,0.7963698378806104,-0.556878818,-0.235937855,-0.003803675,0
1710515808251314000,0.295313965,-0.067588821,-0.125860453,-0.040178157,-0.380736858,0.8852339386940002,-0.267208576,-0.019760609,-0.007700861,-0.003070086,0.7959836772209804,-0.557187803,-0.23651101,-0.003786026,0
1710515808261333000,0.305333008,0.071618609,-0.161612391,-0.034308817,-0.381489098,0.8851021528244019,-0.266571581,-0.021053046,-0.014008224,0.002030253,0.7957847046155982,-0.557177266,-0.237208131,-0.003549955,0
1710515808271352800,0.315352783,0.21790869534015656,-0.154312402,-0.003667817,-0.382158369,0.8845910429954529,-0.267308623,-0.018064469,-0.000939131,0.001104057,0.7960184033715778,-0.556540124,-0.237925987,-0.003028916,0
1710515808281372000,0.325371826,0.23686987161636353,-0.136761308,0.010751602239906788,-0.382588446,0.8839659094810486,-0.268757284,-0.030070275,0.030554473400115967,-0.008860856,0.7964754848328762,-0.555625774,-0.238540056,-0.002344963,0
1710515808291391000,0.335390869,0.2295254021883011,-0.107305683,-0.006986115,-0.383020163,0.883301854,-0.270321161,-0.044348091,0.044066429138183594,0.004604876,0.796967753,-0.554691399,-0.239075044,-0.001757708,0
1710515808301410000,0.345410156,0.21618297696113586,-0.087288089,0.000943979,-0.383414984,0.8826343417167664,-0.271936923,-0.034172297,0.025278985500335693,0.008387417,0.7974753392755379,-0.55377439,-0.239510884,-0.001270318,0
1710515808311430000,0.355429932,0.23355291783809662,-0.058472682,0.0010545,-0.383729666,0.8819703459739685,-0.273641884,-0.028272867,0.00630486,0.000265688,0.7980102154562159,-0.552855257,-0.239854377,-0.0008295,0
1710515808321448700,0.36544873,0.19632510840892792,-0.042502932,0.010467709,-0.383930743,0.8813542127609253,-0.275340229,-0.041072398,0.021676361560821533,0.004100263,0.7985424935376976,-0.551986549,-0.240084842,-0.000448231,0
1710515808331467800,0.375467773,0.16382469236850739,-0.037191257,0.026124432682991028,-0.383955598,0.8808963894844055,-0.276766866,-0.046052396,0.059594512,0.006854415,0.7989891120567855,-0.551280618,-0.240221239,-7.92E-05,0
1710515808341486800,0.385486816,0.1104285791516304,-0.06209432,0.073254928,-0.383721322,0.8806816935539246,-0.27777338,-0.027258962,0.068033695,0.009539366,0.7993039212643864,-0.550786557,-0.240307062,0.000395282,0
1710515808351507000,0.395506836,0.074194945,-0.100093096,0.11968234926462173,-0.383134872,0.8808104395866394,-0.278174639,-0.006162733,0.045871437,0.015372723,0.7994288114179223,-0.550570723,-0.240384205,0.001094541,0
1710515808361525800,0.405525879,0.11880209296941757,-0.12039198,0.16157333552837372,-0.382258445,0.8810679316520691,-0.278564125,0.009638757,0.053594112396240234,0.020645081996917725,0.799548567,-0.550356307,-0.2404701,0.002068285,0
1710515808371544800,0.415544922,0.10410942882299423,-0.139156878,0.20336951315402985,-0.381049395,0.881450891,-0.279008716,0.018973559141159058,0.069904208,0.024110943,0.7996834767578554,-0.550135638,-0.240512825,0.003289081,0
1710515808381564000,0.425563965,0.08331494,-0.132965356,0.21776710450649261,-0.379615575,0.881990373,-0.279258102,0.020606756,0.074857891,0.027183204889297485,0.799754839,-0.550025392,-0.240505753,0.00461406,0
1710515808391584000,0.435583984,0.050161514431238174,-0.126547933,0.2259640395641327,-0.378046036,0.8826475143432617,-0.279311359,0.034021347761154175,0.062390506,0.038405836,0.7997629004687886,-0.550036018,-0.240426081,0.005928417,0
1710515808401603000,0.445603027,0.065086402,-0.109454274,0.21926885843276978,-0.376463741,0.8833181262016296,-0.279328346,0.044218779,0.042173326,0.060502291,0.7997577974140212,-0.550078813,-0.240310485,0.007195907,0
1710515808411622000,0.455621826,0.068564758,-0.101559334,0.20456154644489288,-0.374911964,0.8839337229728699,-0.279468387,0.048862069845199585,0.030739426612854004,0.066898435,0.7997897868866275,-0.550078555,-0.240165349,0.008409378,0
1710515808421641000,0.465640869,0.066274703,-0.105189964,0.19579894840717316,-0.373451382,0.884498656,-0.279636353,0.058174192905426025,0.027824521,0.074054897,0.7998292509009155,-0.550058712,-0.240035919,0.009566366,0
1710515808431660800,0.475660889,0.047925524,-0.107345521,0.19015677273273468,-0.372042447,0.8850688338279724,-0.279710084,0.062838286,0.01960963,0.066178858,0.7998378366840228,-0.55006875,-0.239936103,0.010705476324664287,0
1710515808441680000,0.485679932,0.037777282,-0.107125923,0.1756390929222107,-0.370708048,0.88566947,-0.279580593,0.065211773,-0.006717265,0.04787612,0.7997820795794939,-0.550157812,-0.239866814,0.011791437107813158,0
1710515808451698700,0.49569873,0.075594172,-0.108152039,0.16877664625644684,-0.369432449,0.886186957,-0.279629171,0.060548723,-0.027025461,0.035092055797576904,0.79978084,-0.550163808,-0.23980243,0.012856482410658374,0
1710515808461717800,0.505717773,0.096006766,-0.099890061,0.16144363582134247,-0.368214965,0.8865882158279419,-0.279962897,0.050694823265075684,-0.039694786,0.012629181146621704,0.799867321,-0.550036794,-0.239745872,0.013921612058322087,0
1710515808471737900,0.515737793,0.07705918,-0.103970021,0.1494508981704712,-0.36704725,0.8869675397872925,-0.280294776,0.041226268,-0.041310072,0.000418305,0.7999524521439346,-0.549906391,-0.239698912,0.01495546,0
1710515808481757000,0.525756836,0.044766482,-0.109443776,0.120456263,-0.366070598,0.8873565793037415,-0.280340672,0.036968976,-0.048550308,-0.000634432,0.7999487818572147,-0.549871441,-0.239731238,0.01588993,0
1710515808491776000,0.535775879,0.098467529,-0.112514399,0.085086294,-0.365456939,0.8875845074653625,-0.280419618,0.041360199,-0.058513284,-0.002371252,0.7999563211990561,-0.549753632,-0.23991903,0.016727983511771728,0
1710515808501794800,0.545794922,0.027751015,-0.062345669,0.065265983,-0.364931375,0.8877531886100769,-0.280569971,0.044008434,-0.06945473,-0.004616559,0.7999883383646051,-0.549623909,-0.240059531,0.017428529,0
1710515808511815000,0.555814941,-0.01440576,0.11238619685173035,-0.031481605,-0.364658028,0.8878648281097412,-0.280572057,0.038119882345199585,-0.069764793,-0.00893268,0.7999889538688136,-0.54969663,-0.239890785,0.017429556,0
1710515808521834000,0.565833984,-0.050236993,0.12425872683525085,-0.008791473,-0.364463657,0.8878946900367737,-0.280730039,0.008247167,-0.072571695,-0.098816812,0.8000480395800982,-0.549819622,-0.239443867,0.016977866757397427,0
1710515808531853000,0.575853027,-0.090433151,0.15057528018951416,-0.035070747,-0.364200234,0.88807559,-0.280499548,0.002139628,-0.125242889,-0.22648868,0.7999869465348879,-0.550141908,-0.238943731,0.01645349,0
1710515808541871900,0.585871826,-0.024784099,0.162935272,-0.073160335,-0.364245743,0.8880233764648438,-0.280605584,0.059771806,-0.121391237,-0.097308546,0.8000350880445305,-0.550309338,-0.238446714,0.015705468538036282,0
1710515808551891700,0.595891602,-0.003032465,0.16205351054668427,-0.090023741,-0.364489228,0.8877651691436768,-0.281106323,0.041781038,-0.059350133,-0.024633765,0.8002061735004993,-0.550264783,-0.238024172,0.014945169755734405,0
1710515808561910800,0.605910889,-0.060355142,0.2129637748003006,-0.129598856,-0.364933163,0.8874369859695435,-0.28156662,0.032322019,-0.040726602,-0.08237052,0.8003678505954612,-0.550250003,-0.237574474,0.013958007,0
1710515808571929900,0.615929932,-0.179655433,0.18852686882019043,-0.150073767,-0.365590423,0.8872618675231934,-0.281265587,0.088078767,-0.056252778,-0.086699843,0.8002949022831268,-0.550573482,-0.237141397,0.012691942918070073,0
1710515808581950000,0.625949951,-0.264183104,0.19331306219100952,-0.175722942,-0.366512716,0.8872913718223572,-0.279969245,0.075619072,-0.072548151,-0.102476776,0.7999114269279778,-0.551287674,-0.236848642,0.011249267,0
1710515808591968800,0.63596875,-0.303458333,0.16091278195381165,-0.181711584,-0.367598206,0.887421191,-0.278128296,0.066038698,-0.070999563,-0.077385932,0.7993561489982002,-0.552214738,-0.236632082,0.009695883,0
1710515808601987800,0.645987793,-0.281757027,0.088930458,-0.197564051,-0.36892429,0.8875550627708435,-0.275936425,0.063153386,-0.095120311,-0.021060318,0.7986864599987452,-0.553186619,-0.23667773,0.008259686,0
1710515808612007000,0.656006836,-0.291598737,0.029455944895744324,-0.219950855,-0.370642751,0.8874481916427612,-0.273970425,0.025336325,-0.120571852,0.022811084985733032,0.798083884,-0.553941263,-0.236989158,0.006888542,0
1710515808622027000,0.6660271,-0.052164592,0.004236023,-0.282682687,-0.372933805,0.8868969082832336,-0.272643477,-0.020208925,-0.11281836,0.13647431135177612,0.7976782188584957,-0.554256613,-0.23765072,0.005596495,0
1710515808632046000,0.676046143,-0.010676802,-0.071226239,-0.322275907,-0.375627309,0.885948658,-0.272028536,-0.111631751,-0.126350582,0.22318539023399353,0.7974925056332691,-0.554111522,-0.23863393,0.004502904,0
1710515808642065000,0.686064941,-0.037677262,-0.100715376,-0.312695175,-0.378697813,0.8847574,-0.27164796,-0.117335021,-0.190772176,0.19623926281929016,0.7973784371334118,-0.553756431,-0.23985379,0.003440746,0
1710515808652084000,0.696083984,-0.036741428,-0.055836312,-0.341573149,-0.381845415,0.8836072683334351,-0.270984262,-0.031225324,-0.235062778,0.20123660564422607,0.7971743753405021,-0.553516204,-0.241096829,0.002300751,0
1710515808662103800,0.70610376,-0.004756861,0.013358148746192455,-0.327771604,-0.384884655,0.882375956,-0.27069658,-0.076510668,-0.138601422,0.14829084277153015,0.7970868162759438,-0.553196292,-0.242127173,0.001001543,0
1710515808672123000,0.716122803,-0.102022693,0.079594694,-0.317573279,-0.387571335,0.8812606930732727,-0.270496219,-0.115449935,0.025447189807891846,-0.034892887,0.7970244472983651,-0.552985898,-0.24281368,-0.000465153,0
1710515808682141700,0.726141602,-0.249009743,0.10532508790493011,-0.3465783,-0.390255421,0.8804264664649963,-0.269351214,-0.061221689,0.073568404,-0.139858693,0.7966621167234529,-0.553265579,-0.243354875,-0.00227035,0
1710515808692160800,0.736160889,-0.343810558,0.084274665,-0.352556288,-0.393063068,0.8798861503601074,-0.267023921,-0.055209607,0.016003131866455078,-0.167866558,0.7959230288364845,-0.554063917,-0.243928711,-0.004301059,0
1710515808702180900,0.746180908,-0.399021894,0.023929087445139885,-0.340634674,-0.39598158,0.8794975876808167,-0.263975024,-0.057173967,-0.008846164,-0.129731983,0.7949515586056691,-0.555115077,-0.244662508,-0.006297694,0
1710515808712200000,0.756199951,-0.427701741,-0.052084718,-0.334309667,-0.398978084,0.879244864,-0.260278821,-0.054543674,-0.017107904,-0.075902492,0.7937717859603008,-0.556350655,-0.245630886,-0.008113913,0
1710515808722219000,0.766218994,-0.391019076,-0.095821388,-0.332022011,-0.402131379,0.878971279,-0.256320387,-0.040373594,-0.035526276,-0.023556054,0.7925059361933415,-0.557583589,-0.246860984,-0.009732868,0
1710515808732237800,0.776237793,-0.316187978,-0.108992323,-0.309322268,-0.405222952,0.8785719871520996,-0.252796113,-0.048542947,-0.010499358,0.008152187,0.7913747222761419,-0.558588387,-0.248155107,-0.01114918,0
1710515808742258000,0.786257813,-0.279431015,-0.104449555,-0.312989712,-0.408194304,0.8780766725540161,-0.249717712,-0.056802064,0.057806015,0.044792428612709045,0.7903823437810641,-0.559401338,-0.249421902,-0.012439168,0
1710515808752277000,0.7962771,-0.232600674,-0.105283655,-0.329627275,-0.411288321,0.8773787021636963,-0.24708046,-0.046948433,0.11645692586898804,0.076701105,0.7895261573890534,-0.559999513,-0.250719589,-0.013740159,0
1710515808762296000,0.806296143,-0.259002984,-0.139870182,-0.336937934,-0.414511442,0.876599133,-0.244447485,-0.042916566,0.11259782314300537,0.045305312,0.7886687157515697,-0.56054786,-0.252115761,-0.015020862,0
1710515808772315000,0.816314941,-0.313747704,-0.192399159,-0.358298331,-0.417961419,0.8758549690246582,-0.241218835,-0.0216901,0.046722054,0.013664796948432922,0.7876193328780622,-0.561261512,-0.253724449,-0.016289061,0
1710515808782334700,0.826334717,-0.332001567,-0.262108088,-0.374719381,-0.421709657,0.8750980496406555,-0.237412214,0.001757205,-0.011923492,-0.005492195,0.7863837905063419,-0.562099455,-0.255613178,-0.017514275,0
1710515808792353800,0.83635376,-0.314939767,-0.317662954,-0.390458673,-0.425753653,0.8742315769195557,-0.233352453,0.020235955715179443,-0.043115556,-0.016021699,0.7850667989480011,-0.562901651,-0.257809047,-0.018616931,0
1710515808802372900,0.846372803,-0.302053541,-0.363057464,-0.396893144,-0.429982185,0.8732571601867676,-0.229210854,0.028187662363052368,-0.042476952,-0.00929898,0.7837227937643828,-0.563629792,-0.260223038,-0.019602164,0
1710515808812392000,0.856391846,-0.35718441,-0.384099364,-0.405291945,-0.434343785,0.8722571134567261,-0.224751547,0.030687689781188965,-0.033816993,-0.006693482,0.7822751034589116,-0.5644111,-0.26280094,-0.02053336,0
1710515808822411800,0.866411865,-0.413812548,-0.376035541,-0.445220202,-0.438883871,0.8712780475616455,-0.219672233,0.038264245,-0.041977882,-0.015251845,0.7806205237105379,-0.565423389,-0.265443549,-0.021632038,0
1710515808832430800,0.876430908,-0.47537896,-0.392189205,-0.494586408,-0.443814665,0.8701621294021606,-0.214118391,0.038998902,-0.074294031,-0.009117424,0.7788013391921802,-0.566567155,-0.26822092,-0.022974359,0
1710515808842450000,0.886449951,-0.465064824,-0.406847298,-0.546513259,-0.449221939,0.8688247799873352,-0.208191112,0.055865526,-0.138615251,0.002777576,0.7768494799664477,-0.56775407,-0.271219023,-0.024508157,0
1710515808852469000,0.896468994,-0.500929356,-0.422980726,-0.568614006,-0.454902351,0.8672976493835449,-0.202135876,0.074531198,-0.12826854,0.017031789,0.7748450262555837,-0.568914282,-0.274351236,-0.026140127,0
1710515808862489000,0.906489014,-0.486060381,-0.424627185,-0.611582816,-0.460873961,0.8655837178230286,-0.195857853,0.068219453,-0.040067792,0.025158047676086426,0.7727547890418225,-0.570091158,-0.277609697,-0.027912651,0
1710515808872508000,0.916507813,-0.467913866,-0.43725431,-0.63716644,-0.467126399,0.8635848760604858,-0.189774707,0.052056729793548584,0.00351119,-0.006865025,0.7707151705175018,-0.571099544,-0.280994593,-0.029760844,0
1710515808882527000,0.926526855,-0.457083046,-0.45896396,-0.673316181,-0.47360447,0.8613902926445007,-0.183591262,0.055544108152389526,-0.046525061,-0.042055428,0.7686307004682102,-0.572061546,-0.284517063,-0.031663882,0
1710515808892546000,0.936546143,-0.27970162,-0.436217099,-0.704167306,-0.480385512,0.8587524890899658,-0.178252444,0.058113813400268555,-0.056796253,-0.062912449,0.7668115320485538,-0.572562469,-0.288177029,-0.033560165,0
1710515808902566000,0.946565918,-0.224210396,-0.40254125,-0.698536336,-0.487152249,0.8557838797569275,-0.174117476,0.039032072,-0.016794503,-0.077606425,0.7653791082387584,-0.572555905,-0.291755026,-0.03540777,0
1710515808912584700,0.956584717,-0.179781944,-0.356656313,-0.712633789,-0.493852496,0.852662206,-0.170520157,0.003206044,0.061705589294433594,-0.061382651,0.7641124443116988,-0.572359031,-0.295203422,-0.037315109,0
1710515808922603800,0.96660376,-0.153228104,-0.32759732,-0.737652063,-0.500587404,0.8493494391441345,-0.167385697,-0.023948729,0.11630314588546753,-0.064486548,0.7629837269715531,-0.571996275,-0.298542144,-0.039354995,0
1710515808932624000,0.976623779,-0.035642073,-0.281981081,-0.759601057,-0.507494152,0.8457010388374329,-0.165044069,-0.020597279,0.07592988,-0.092508778,0.7621028831113797,-0.571279904,-0.301856319,-0.041488421,0
1710515808942643000,0.986642822,-0.037785385,-0.260253012,-0.729046822,-0.514209747,0.8419530987739563,-0.163411453,-0.028377533,0.065502346,-0.118219718,0.7614489073878121,-0.570327759,-0.30499266,-0.043603951,0
1710515808952662000,0.996662109,-0.064391963,-0.232485548,-0.726296842,-0.520742059,0.8382635712623596,-0.161684573,-0.058145881,0.11927127838134766,-0.14091216,0.7607559029686033,-0.569462819,-0.308009433,-0.045746699,0
1710515808962680800,1.006680908203125,-0.106336482,-0.197344393,-0.717187285,-0.527135611,0.8346063494682312,-0.159876019,-0.076334238,0.1549718976020813,-0.13924174,0.7600210632396313,-0.568709146,-0.310856711,-0.048021305,0
1710515808972701000,1.016700927734375,-0.09559942,-0.18889764,-0.707865953,-0.533388972,0.8309916257858276,-0.157953516,-0.08439368,0.14792084693908691,-0.12444061,0.7592374126671234,-0.568051757,-0.313592795,-0.050353011,0
1710515808982720000,1.026719970703125,-0.028223306,-0.191380188,-0.662860096,-0.539397895,0.8273933529853821,-0.156430095,-0.097885489,0.16477900743484497,-0.109362468,0.7585883291152004,-0.567248109,-0.316250747,-0.052525192,0
1710515808992739000,1.036739013671875,-0.013447821,-0.215559289,-0.608320177,-0.544971883,0.8239697217941284,-0.155176744,-0.103252053,0.20000195503234863,-0.089116201,0.7580439994735841,-0.566358168,-0.318826059,-0.05438564,0
1710515809002758000,1.046757813,-0.029595632,-0.227272242,-0.554591715,-0.550102651,0.8208145499229431,-0.153787628,-0.099814951,0.23271334171295166,-0.06677787,0.7574685357554336,-0.565566414,-0.321311087,-0.055993951,0
1710515809012777700,1.056777832,-0.089772686,-0.240283117,-0.501697302,-0.554787517,0.8179834485054016,-0.152033567,-0.090094805,0.23307263851165771,-0.05254072,0.7567823250890164,-0.564995013,-0.323672446,-0.057423821,0
1710515809022796800,1.066796875,-0.067474306,-0.25901258,-0.465118527,-0.559122384,0.8154195547103882,-0.149911344,-0.071447134,0.19542962312698364,-0.053900003,0.7559831710515635,-0.564619086,-0.325959524,-0.058696713,0
1710515809032815900,1.076815918,0.064072005,-0.302677244,-0.399125397,-0.563074708,0.8129917979240417,-0.148295507,-0.069890499,0.18500947952270508,-0.067356706,0.7553815827056902,-0.564011438,-0.328242818,-0.059553334,0
1710515809042835000,1.086834961,0.23319551348686218,-0.287320673,-0.354599476,-0.566562593,0.8106495141983032,-0.147831649,-0.074596465,0.20172536373138428,-0.043223366,0.7552028441590692,-0.562909584,-0.33047992,-0.059870956,0
1710515809052854800,1.096854736328125,0.29801738262176514,-0.253022075,-0.322402656,-0.569711924,0.8083152174949646,-0.148509637,-0.081472218,0.20541787147521973,0.002529085,0.7554211799442271,-0.561398519,-0.332531027,-0.059948452,0
1710515809062873900,1.106873779296875,0.31441766023635864,-0.213247567,-0.28682524,-0.572524905,0.8061124086380005,-0.149661645,-0.089233696,0.1678105592727661,0.016361162066459656,0.7558041352963051,-0.559792959,-0.334366595,-0.059927142,0
1710515809072893000,1.116892822265625,0.2652021646499634,-0.167991132,-0.259998411,-0.575001478,0.8041132688522339,-0.150915891,-0.079356492,0.098047554,0.001395285,0.7562183980251822,-0.558291427,-0.335935612,-0.059932951,0
1710515809082912000,1.126912109,0.22909317910671234,-0.140327066,-0.224452928,-0.577189863,0.8023366332054138,-0.152012646,-0.065403581,0.052628636,0.00684084,0.7565746840658968,-0.556994024,-0.337270414,-0.060009036,0
1710515809092932000,1.136932129,0.19254262745380402,-0.108890057,-0.174843565,-0.578965306,0.8008726239204407,-0.152978092,-0.065138698,0.045913935,0.003640667,0.7568891964848066,-0.555906038,-0.338348089,-0.060065263,0
1710515809102951000,1.146950927734375,0.16495440900325775,-0.111971758,-0.144929871,-0.580401182,0.7996804118156433,-0.15377216,-0.049619019,0.031465888023376465,0.004358366,0.7571513570030449,-0.554998417,-0.339250164,-0.06006658,0
1710515809112970000,1.156969970703125,0.2590542733669281,-0.133767068,-0.11244569,-0.58161211,0.7986280918121338,-0.154662907,-0.030143261,0.015321552753448486,0.016143873,0.757460844,-0.554059026,-0.340128126,-0.059871463,0
1710515809122989000,1.166989013671875,0.4334242343902588,-0.118641689,-0.059321757,-0.582502306,0.7975755929946899,-0.156730622,-0.0041219,0.027040005,0.008003548,0.7581916974610584,-0.552617474,-0.34095251,-0.059252196,0
1710515809133009000,1.177008789,0.48477768898010254,-0.110616788,-0.026664479,-0.583007634,0.796607494,-0.159746036,0.009673834,0.038582444190979004,0.000612378,0.7592593408005197,-0.550826162,-0.341639465,-0.05829582,0
1710515809143027700,1.187027832,0.5281424522399902,-0.084843785,-0.001403864,-0.583282888,0.7956979870796204,-0.163235754,0.00097692,0.023454964,0.007153869,0.7604900476705756,-0.54889066,-0.342200476,-0.057208812,0
1710515809153046800,1.197046875,0.5272303223609924,-0.047385093,0.025742802768945694,-0.583290339,0.7948960065841675,-0.167071685,0.007209957,-0.003453016,0.014056816697120667,0.761835352,-0.546906979,-0.342573951,-0.056061114,0
1710515809163065900,1.207065918,0.5168450474739075,-0.01196814,0.059229124,-0.582993865,0.7942661046981812,-0.171054333,0.00454843,-0.024475396,0.011310353875160217,0.7632236492495986,-0.544999692,-0.342707123,-0.054926206,0
1710515809173086000,1.217085938,0.48843181133270264,0.008896128,0.086866878,-0.582401097,0.7938222289085388,-0.175086901,-0.002117395,-0.031752408,0.012428462505340576,0.7646254362786765,-0.54318863,-0.342640724,-0.053772714,0
1710515809183105000,1.22710498,0.4516727328300476,0.015422150492668152,0.10817030072212219,-0.581594527,0.7935707569122314,-0.178867593,0.004095018,-0.050864339,0.020466387271881104,0.7659399331213108,-0.54156833,-0.342446993,-0.052631267,0
1710515809193123800,1.237123779296875,0.45865368843078613,0.007004964,0.13094724714756012,-0.580617368,0.7934465408325195,-0.182555228,0.014989256858825684,-0.044453442,0.022826493,0.7672246125285518,-0.540023889,-0.342193779,-0.051422164,0
1710515809203143000,1.247142822265625,0.5110300779342651,-0.007813876,0.14965568482875824,-0.579509795,0.7933650612831116,-0.186388031,0.020778656005859375,-0.020339429,0.028200448,0.7685624857146116,-0.538407315,-0.34194085,-0.050058748,0
1710515809213163000,1.257163086,0.5337452292442322,-0.023035705,0.1755189746618271,-0.578234971,0.7933235168457031,-0.190479264,0.014895678,-0.004581273,0.0394786,0.7699928525159477,-0.536665287,-0.341688074,-0.048484813,0
1710515809223182000,1.267182129,0.5426828265190125,-0.028055232,0.17268191277980804,-0.576884568,0.7933064699172974,-0.194600627,0.00176549,-0.012086809,0.041265309,0.7714331032667433,-0.534897246,-0.341444905,-0.046813454,0
1710515809233201200,1.277201172,0.5608354210853577,0.003929333,0.1743711531162262,-0.575532079,0.7932229042053223,-0.198898956,-0.006285727,-0.026392162,0.036240488,0.7729229348102395,-0.533067533,-0.341159089,-0.045165661,0
1710515809243221000,1.287220947265625,0.5871197581291199,0.066371776,0.17435277998447418,-0.574070752,0.7930640578269958,-0.203696638,-0.013621509,-0.034610629,0.021506995,0.774563368,-0.531115002,-0.340688324,-0.043588815,0
1710515809253239800,1.297239746,0.5326848030090332,0.15023206174373627,0.1530778557062149,-0.572539747,0.7928441762924194,-0.208797738,-0.023361802,-0.035550416,0.027508333325386047,0.776281052,-0.52917923,-0.339956573,-0.042269276,0
1710515809263259000,1.307258789,0.44887080788612366,0.220625103,0.1365891546010971,-0.571000695,0.7926340103149414,-0.213751301,-0.026792884,-0.036789834,0.042410701513290405,0.7779227350773423,-0.527483039,-0.338948362,-0.041375199,0
1710515809273278000,1.317277832,0.44382306933403015,0.24731265008449554,0.09737438,-0.569530249,0.7923635840415955,-0.218622193,-0.02043575,-0.070363224,0.041391641,0.7795183042532695,-0.525908721,-0.337800116,-0.040774637,0
1710515809283298000,1.327298095703125,0.47277164459228516,0.2511419653892517,0.08270622,-0.568285108,0.7918460369110107,-0.223678961,-0.002744675,-0.090490878,0.057999313,0.7811616330057367,-0.524219499,-0.33668151,-0.040326363,0
1710515809293317000,1.337317138671875,0.4898510277271271,0.23144148290157318,0.10388661175966263,-0.566999733,0.7912738919258118,-0.228904486,0.00883311,-0.045164764,0.055290281772613525,0.7828595701692569,-0.522430932,-0.335579621,-0.039791174,0
1710515809303336000,1.347335938,0.4232432246208191,0.1890602558851242,0.10891758650541306,-0.565649748,0.7908250093460083,-0.233744651,0.007406771,-0.014304996,0.041407853,0.7844372819096517,-0.520758683,-0.334571472,-0.039124698,0
1710515809313355000,1.35735498,0.36156758666038513,0.16021981835365295,0.1107860580086708,-0.564367652,0.7905276417732239,-0.237814337,0.014654397964477539,-0.022628784,0.047476441,0.785764134,-0.519379553,-0.333673061,-0.038498817,0
1710515809323375000,1.367375,0.3975764811038971,0.15005970001220703,0.13233768939971924,-0.563050508,0.790303648,-0.241649374,0.015504002571105957,-0.025624573,0.047283172607421875,0.7870171109082958,-0.518073717,-0.332828692,-0.037800354,0
1710515809333394200,1.377394287109375,0.4455815553665161,0.15471197664737701,0.1628180891275406,-0.561481178,0.7901128530502319,-0.245887637,-0.000332177,-0.031323671,0.048011913895606995,0.7884049199404036,-0.516617401,-0.331907583,-0.036899671,0
1710515809343413000,1.387413086,0.4942516088485718,0.1461275964975357,0.16799049079418182,-0.55981344,0.7898810505867004,-0.250393987,-0.009186864,-0.037622571,0.073224485,0.7898796884148132,-0.515034622,-0.330971818,-0.035878748,0
1710515809353432000,1.397432129,0.5644408464431763,0.1513708233833313,0.15643636882305145,-0.558175027,0.7894614338874817,-0.25532636,-0.017340779,-0.03889668,0.094071746,0.7914904530403336,-0.513202516,-0.330090882,-0.034730397,0
1710515809363452000,1.407451904296875,0.623115063,0.153357595,0.19492968916893005,-0.556363046,0.7888955473899841,-0.260968059,-0.023837328,-0.037216842,0.063855261,0.7933261794857394,-0.51107773,-0.329113243,-0.03343397,0
1710515809373471000,1.417470947265625,0.570898175,0.14860039949417114,0.18819908797740936,-0.554424584,0.7884002327919006,-0.266531169,-0.026904881,-0.030953705,0.026617497205734253,0.7951340464679235,-0.508994677,-0.328114051,-0.032058588,0
1710515809383490000,1.427489990234375,0.5977849364280701,0.1584969013929367,0.16092298924922943,-0.552656412,0.7877930998802185,-0.271942943,-0.018159688,-0.026120067,0.009369999,0.796882484,-0.506949313,-0.327155817,-0.030818576,0
1710515809393508900,1.437508789,0.6037176251411438,0.1556350737810135,0.17806921899318695,-0.550877571,0.787070096,-0.277587712,-0.007762074,-0.01674521,-0.015609682,0.798699745,-0.504784893,-0.326187608,-0.029542906,0
1710515809403529000,1.447529052734375,0.590540886,0.16193711757659912,0.15765689313411713,-0.54907459,0.786348283,-0.28314963,-0.008023858,-0.022004902,-0.037162602,0.8004839523431249,-0.502664558,-0.325197663,-0.028292818,0
1710515809413548000,1.457548095703125,0.6211128830909729,0.18604272603988647,0.15011188387870789,-0.54737699,0.7854524254798889,-0.28886503,-0.002061546,-0.016912878,-0.036741942,0.8023067979094078,-0.50046156,-0.324200115,-0.027136014,0
1710515809423567000,1.467567138671875,0.6902371048927307,0.19528576731681824,0.14916114509105682,-0.545632839,0.7843642234802246,-0.29505527,0.000863552,-0.035661101,-0.016284794,0.8042723059181525,-0.498052048,-0.323135467,-0.025956171,0
1710515809433586000,1.477585938,0.8123345375061035,0.19833082,0.14461618661880493,-0.543884397,0.7829598188400269,-0.301933676,-0.002136171,-0.049576461,0.024651229,0.8064489147390577,-0.495277645,-0.322076415,-0.024640766,0
1710515809443606000,1.487605957,1.123725414276123,0.22979804873466492,0.1717253029346466,-0.542027235,0.7808194756507874,-0.310688913,-0.018611252,-0.036220908,0.019856691360473633,0.8092066350255639,-0.491583697,-0.320937697,-0.023004659,0
1710515809453625000,1.497625,1.4444080591201782,0.2621530592441559,0.18255265057086945,-0.539788127,0.7778576612472534,-0.321817398,-0.049521625,-0.034083068,-0.014241934,0.8126966233048467,-0.486750382,-0.319633178,-0.020809964,0
1710515809463644000,1.507643798828125,1.4723929166793823,0.2408105880022049,0.3606422245502472,-0.536733568,0.7743489742279053,-0.335113347,-0.054086804,-0.024730265,-0.050201356,0.8168455952899117,-0.480952355,-0.318006549,-0.017890603,0
1710515809473663000,1.517663086,1.2104936838150024,0.15595588088035583,0.3598025441169739,-0.533206403,0.771537185,-0.347018093,-0.039929032,-0.034781694,-0.117962748,0.820544553,-0.47580201,-0.316391227,-0.014691195,0
1710515809483682800,1.527682861328125,1.295930027961731,0.16058871150016785,0.3089563846588135,-0.530258238,0.7688077092170715,-0.357436717,-0.066421449,-0.04828757,-0.089264065,0.8237584481307307,-0.47117998,-0.315073104,-0.011853216,0
1710515809493702000,1.537701904296875,1.2333356142044067,0.18376806378364563,0.3571644127368927,-0.527001441,0.7660583853721619,-0.36800015,-0.124838829,-0.065512002,-0.066112161,0.8269959723547025,-0.466503276,-0.313647281,-0.008822405,0
1710515809503721000,1.547720947265625,1.1783746480941772,0.21434861421585083,0.3571489453315735,-0.523496091,0.76343596,-0.378308713,-0.07792908,-0.039940357,-0.083757669,0.8301322614859853,-0.462047719,-0.312021723,-0.005905773,0
1710515809513740000,1.557739990234375,1.143441915512085,0.27291446924209595,0.3664684295654297,-0.519803226,0.7608503699302673,-0.388473094,-0.084917903,-0.008271575,-0.058471799,0.8332026350624568,-0.457754377,-0.310200549,-0.003149488,0
1710515809523760000,1.567760009765625,1.153759479522705,0.34620562195777893,0.3335629403591156,-0.515879095,0.758194625,-0.398760587,-0.112981498,-0.091049612,-0.021649361,0.8362895137461086,-0.453529841,-0.308107762,-0.00060028,0
1710515809533779000,1.577779052734375,1.2141051292419434,0.4143044948577881,0.30268996953964233,-0.511906683,0.7550578117370605,-0.409682333,-0.114710867,-0.07628566,-0.025971115,0.8395466007303023,-0.44905687,-0.305788751,0.001715986,0
1710515809543798000,1.587798095703125,1.2784955501556396,0.5042721629142761,0.22807033360004425,-0.508010983,0.7512187957763672,-0.421420604,-0.148773134,-0.027814746,-0.046108454,0.8430282764326947,-0.44421381,-0.303255319,0.0037084,0
1710515809553818000,1.597818115234375,1.213172435760498,0.5963743925094604,0.1818903237581253,-0.504086673,0.746851385,-0.433716416,-0.147295892,0.001928091,-0.063597798,0.8466586559589707,-0.439195851,-0.300414381,0.005248481,0
1710515809563837000,1.607836914,1.0804704427719116,0.7187185883522034,0.1522645205259323,-0.499996871,0.7425658702850342,-0.445644677,-0.169619888,0.019229352474212646,-0.078463972,0.8501665116770318,-0.434525675,-0.29726269,0.006269711,0
1710515809573856000,1.617855957,0.8364752531051636,0.8214486837387085,0.041651994,-0.495725662,0.7388328909873962,-0.456488848,-0.209169447,-0.027590096,-0.094536275,0.8533481338861415,-0.430686662,-0.293708315,0.006437664,0
1710515809583874800,1.627874755859375,0.830024242,0.9503172636032104,-0.064859532,-0.491780013,0.7349281907081604,-0.466940045,-0.238108963,-0.136722445,-0.105706781,0.856410002,-0.427161285,-0.289936565,0.005652589,0
1710515809593895000,1.63789502,0.846747875,1.051466703414917,-0.111719452,-0.487616777,0.7305154800415039,-0.478097409,-0.267937481,-0.175400615,-0.117330819,0.8596683358838353,-0.423426734,-0.285764052,0.004378374,0
1710515809603914000,1.647914063,0.900680661,1.1360481977462769,-0.225937113,-0.48355788,0.7255229353904724,-0.489681989,-0.295388103,-0.092344046,-0.162493706,0.8630380201214374,-0.419495296,-0.281394217,0.002562521,0
1710515809613933000,1.657933105,0.9899170398712158,1.2004845142364502,-0.274477482,-0.479595661,0.7195459604263306,-0.502236843,-0.327579141,-0.050081611,-0.17087394,0.8666709478960167,-0.415013599,-0.276848875,0.000335026,0
1710515809623952000,1.667951904296875,1.1936432123184204,1.3484015464782715,-0.385780841,-0.475505173,0.7124045491218567,-0.51611501,-0.336048841,-0.119478405,-0.15893358,0.8706623107675199,-0.409801002,-0.272039757,-0.002190878,0
1710515809633972000,1.677971923828125,1.2888022661209106,1.4660354852676392,-0.454535395,-0.471083134,0.7039130926132202,-0.531589389,-0.349610955,-0.1209203,-0.184307039,0.8750814951034523,-0.40379095,-0.266754907,-0.005223704,0
1710515809643991000,1.687990966796875,1.313904881477356,1.5847291946411133,-0.552313626,-0.46631828,0.6944800615310669,-0.547946095,-0.375432909,-0.172781885,-0.197231948,0.8797139748343191,-0.397317884,-0.26108514,-0.008755962,0
1710515809654010000,1.698010009765625,1.2872059345245361,1.6770033836364746,-0.649827421,-0.461417019,0.6843850612640381,-0.564545453,-0.364114046,-0.201917231,-0.171965539,0.8843668058759103,-0.390676425,-0.255145483,-0.012968058,0
1710515809664029000,1.708028809,1.1944462060928345,1.7604058980941772,-0.737348437,-0.456214845,0.674084485,-0.580928802,-0.376991451,-0.165691912,-0.193424046,0.8889025964930116,-0.384150129,-0.248926263,-0.017795688,0
1710515809674049000,1.718049072265625,1.185516357421875,1.8545936346054077,-0.847765267,-0.450938046,0.6635188460350037,-0.596990585,-0.382710725,-0.216497183,-0.195520163,0.893280575,-0.377734048,-0.242531849,-0.023349836,0
1710515809684067800,1.728067871,1.217657446861267,1.9320658445358276,-0.858541191,-0.445081621,0.6522923707962036,-0.61352843,-0.379152477,-0.204904497,-0.206265092,0.8977222196899163,-0.371002932,-0.235780831,-0.02931277,1
1710515809694087000,1.738086914,1.2823560237884521,2.0113954544067383,-0.906293511,-0.43848899,0.6406415104866028,-0.630322218,-0.412570059,-0.127091467,-0.220904469,0.9021663103162249,-0.364046493,-0.228711716,-0.035458345,1
1710515809704105700,1.748105712890625,1.3632431030273438,2.10262394,-0.925038755,-0.431199491,0.6280943155288696,-0.647738159,-0.465101868,-0.038631797,-0.23220551,0.9067077288126475,-0.356572781,-0.221329534,-0.041838726,1
1710515809714125800,1.758125732421875,1.3675886392593384,2.1897213459014893,-0.924201965,-0.422820389,0.6151576042175293,-0.665435374,-0.482834578,-0.004515886,-0.246002436,0.9112515703131852,-0.348863703,-0.213486387,-0.048358126,1
1710515809724145000,1.768144775390625,1.2931970357894897,2.3119678497314453,-0.943058729,-0.413271964,0.6021677851676941,-0.683081567,-0.494214088,-0.000177801,-0.218239665,0.9157012697236455,-0.341137689,-0.20514459,-0.055065235,1
1710515809734164000,1.778164063,1.2401173114776611,2.445174456,-1.076132894,-0.402808815,0.5893356800079346,-0.700306058,-0.513588309,0.050190865993499756,-0.218196571,0.9199185840782508,-0.333649189,-0.196278325,-0.062473809,1
1710515809744183000,1.788183105,1.2670769691467285,2.4916086196899414,-1.085116982,-0.391643226,0.5760681629180908,-0.7174685,-0.527027547,0.040677011013031006,-0.239440501,0.9240051925302211,-0.325968744,-0.187109907,-0.070347515,1
1710515809754203100,1.798203125,1.3420978784561157,2.606372594833374,-1.145738006,-0.379436195,0.5622867345809937,-0.734752893,-0.534168601,-0.073272943,-0.236102641,0.9280245646769312,-0.317949919,-0.17757084,-0.07840229,1
1710515809764222000,1.808221923828125,1.3670082092285156,2.677884101867676,-1.29490912,-0.366480559,0.547600508,-0.752213836,-0.560033202,0.003211379,-0.181684852,0.9319493172867401,-0.30945849,-0.1677156,-0.087048337,1
1710515809774241000,1.818240966796875,1.3286343812942505,2.746107339859009,-1.415186286,-0.35313341,0.5324136018753052,-0.7693066,-0.628769755,0.16395199298858643,-0.166575789,0.9356020362384214,-0.300788074,-0.157712485,-0.0964486,1
1710515809784260900,1.828260742,1.310964822769165,2.7917940616607666,-1.490689039,-0.339225948,0.5171176195144653,-0.785821378,-0.627677798,0.114749014,-0.17766422,0.9389305931119605,-0.292095234,-0.147545583,-0.106396527,1
1710515809794280000,1.838280029296875,1.3900572061538696,2.8282368183135986,-1.56681633,-0.324659973,0.5013010501861572,-0.802055657,-0.626206875,0.024410188,-0.098075449,0.9420266981374936,-0.283076418,-0.137258583,-0.116677805,1
1710515809804298800,1.848298828,1.3802735805511475,2.8571712970733643,-1.64945519,-0.30952096,0.484919935,-0.817954481,-0.664783359,0.19844508171081543,-0.033791065,0.9448619845826114,-0.273710939,-0.126905853,-0.12733129,1
1710515809814317800,1.858317871,1.4106978178024292,2.861569881439209,-1.741543889,-0.293958336,0.4682847559452057,-0.833245456,-0.675249577,0.24802401661872864,-0.014837921,0.9473516967130845,-0.264180005,-0.116559865,-0.13837526,1
1710515809824338000,1.868337891,1.4303849935531616,2.8580434322357178,-1.836218476,-0.278090656,0.4512091279029846,-0.847983479,-0.664856851,0.2024317979812622,0.001975298,0.9495023485318298,-0.254374223,-0.106310955,-0.149790417,1
1710515809834357000,1.878356934,1.440743327140808,2.889256477355957,-1.940832496,-0.261875868,0.43378573656082153,-0.862120092,-0.668773055,0.2461613118648529,0.053190708,0.9512778308036859,-0.24433596,-0.096124426,-0.161649982,1
1710515809844376000,1.888375977,1.4064044952392578,2.9022421836853027,-2.062984705,-0.245147809,0.4162352383136749,-0.875585973,-0.67930603,0.2714785635471344,0.10347610712051392,0.9526377784974706,-0.234153994,-0.085900574,-0.17399563,1
1710515809854395000,1.898394775390625,1.350822925567627,2.883573293685913,-2.230807543,-0.228346705,0.3990042507648468,-0.888061643,-0.687424898,0.24078169465065002,0.11766070127487183,0.9534444379918412,-0.224109538,-0.075789837,-0.187015493,1
1710515809864415000,1.908415039,1.3226948976516724,2.869185686,-2.349889517,-0.211529315,0.38189801573753357,-0.899671793,-0.692035258,0.27416902780532837,0.12789756059646606,0.9537186525271769,-0.214070996,-0.065861378,-0.200641069,1
1710515809874434000,1.918434082,1.217815876,2.831728697,-2.499737978,-0.194764033,0.3654572367668152,-0.91022414,-0.692519426,0.21871036291122437,0.14206629991531372,0.9533975537214179,-0.204302796,-0.056109669,-0.214814459,1
1710515809884453000,1.928453125,1.0773810148239136,2.8003506660461426,-2.640713215,-0.178147212,0.3500868082046509,-0.919620991,-0.691146135,0.25379517674446106,0.20500624179840088,0.9524136094981368,-0.195002598,-0.046513222,-0.229606087,1
1710515809894472000,1.938471923828125,0.9452307820320129,2.765909433364868,-2.773593426,-0.161702126,0.33613622188568115,-0.927828074,-0.665812671,0.3124692738056183,0.2348502278327942,0.9507412846236615,-0.186317965,-0.037034981,-0.244959631,1
1710515809904491800,1.948491699,0.8735653758049011,2.761166811,-2.884545565,-0.145274833,0.323337585,-0.935065806,-0.636661947,0.2749597132205963,0.2351452112197876,0.9484305492140122,-0.178055811,-0.027626543,-0.260792156,1
1710515809914510800,1.958510742,0.8249954581260681,2.756368398666382,-2.996501446,-0.12865904,0.3112945854663849,-0.941563904,-0.633456588,0.31987011432647705,0.24234521389007568,0.9455266128020045,-0.169957515,-0.018234638,-0.277058551,1
1710515809924530000,1.968530029296875,0.753128171,2.733268976211548,-3.081970215,-0.111999199,0.3001687824726105,-0.947288156,-0.629486561,0.3218253552913666,0.2542187571525574,0.9420245221182492,-0.1621001,-0.008914754,-0.293656107,1
1710515809934550000,1.978550048828125,0.7038453221321106,2.7069051265716553,-3.175652742,-0.095359638,0.2899560034275055,-0.952277303,-0.607887566,0.30033037066459656,0.26567763090133667,0.9379270302407757,-0.154470878,0.00030782,-0.310534464,1
1710515809944568800,1.988568848,0.6373836994171143,2.6659603118896484,-3.279813528,-0.078888498,0.2807561755180359,-0.956531525,-0.576385081,0.31798356771469116,0.2860756516456604,0.9332064189323073,-0.147125522,0.009397447,-0.327706606,1
1710515809954588000,1.998587891,0.5455414056777954,2.614243507385254,-3.368959904,-0.062752642,0.27272695302963257,-0.960042775,-0.555762529,0.324074924,0.3497980833053589,0.9278459487823767,-0.14015367,0.018318409369866194,-0.345142454,1
1710515809964607000,2.008606934,0.39974960684776306,2.5650618076324463,-3.454030752,-0.047029261,0.2662242650985718,-0.962763131,-0.523146033,0.3351094722747803,0.4058631658554077,0.9218298335928244,-0.133727214,0.02711923,-0.36278289,1
1710515809974627000,2.018626953,0.26447540521621704,2.5234363079071045,-3.537522078,-0.031702101,0.2616424262523651,-0.964644074,-0.495534986,0.30952465534210205,0.4584032893180847,0.9151349798752245,-0.128014886,0.035918589,-0.38059174,1
1710515809984646100,2.028646240234375,0.073235407,2.4590606689453125,-3.614301682,-0.016928449,0.25914886593818665,-0.965689003,-0.460748106,0.2898777425289154,0.5123504400253296,0.9077589227572787,-0.123107462,0.044721772,-0.398520214,1
1710515809994665000,2.038665039,-0.127885193,2.409766674041748,-3.691556692,-0.002870886,0.25906243920326233,-0.965856314,-0.422590077,0.28212109208106995,0.5516564846038818,0.8996838186470034,-0.119169492,0.053576843,-0.416529942,1
1710515810004684000,2.048684082,-0.249846771,2.354266405105591,-3.738470316,0.010493339970707893,0.26106879115104675,-0.965263188,-0.392726153,0.2849976122379303,0.5778272747993469,0.8909529992665173,-0.116035388,0.062483611,-0.434550971,1
1710515810014703900,2.058703857421875,-0.371976435,2.294327735900879,-3.764630079,0.023079282,0.2646943926811218,-0.964056134,-0.367760211,0.28793326020240784,0.609258771,0.8816619562013351,-0.11350438,0.071335022,-0.452438355,1
1710515810024723000,2.068722900390625,-0.52130729,2.2392640113830566,-3.807162523,0.034807798,0.2700919210910797,-0.962205172,-0.33546713,0.28592315316200256,0.624467134,0.8718023478664345,-0.111660608,0.080183079,-0.470173845,1
1710515810034741800,2.078741699,-0.673985243,2.1918654441833496,-3.836829185,0.045650233,0.27735355496406555,-0.959682822,-0.29316321,0.2555291950702667,0.6533931493759155,0.861358561,-0.110545842,0.08909667,-0.487752965,1
1710515810044760800,2.088760742,-0.818135798,2.145486593,-3.885448933,0.055534619837999344,0.2864859700202942,-0.956473589,-0.26206249,0.2543008327484131,0.6956703662872314,0.850325549,-0.110174031,0.098106521,-0.505156903,1
1710515810054781000,2.098781005859375,-0.924831331,2.0908360481262207,-3.937034845,0.064365342,0.2972390949726105,-0.952631116,-0.22906886,0.2342551350593567,0.7143498659133911,0.8386850229542865,-0.110447962,0.10717129506316474,-0.522420599,1
1710515810064800000,2.108800048828125,-0.968828678,2.0112369060516357,-3.981492519,0.071758278,0.30888330936431885,-0.948389113,-0.19863525,0.21646159887313843,0.7267704606056213,0.8264817671528601,-0.111152643,0.11597645803699455,-0.539557935,1
1710515810074819000,2.118819091796875,-1.089406967,1.9356218576431274,-4.037099838,0.077762701,0.321580708,-0.943683684,-0.162952676,0.2328169345855713,0.7339363098144531,0.8137159684551736,-0.112363569,0.12462985661307342,-0.556514485,1
1710515810084838000,2.128837891,-1.30649209,1.8606436252593994,-4.100798607,0.08223483,0.3361266851425171,-0.938219786,-0.115117669,0.21866768598556519,0.7265803813934326,0.8002909952245844,-0.114463747,0.13337229843225795,-0.573275254,1
1710515810094858000,2.13885791,-1.521352291,1.807831048965454,-4.164935589,0.085117213,0.3528166115283966,-0.931813061,-0.076496139,0.18858051300048828,0.7320754528045654,0.7861667252197166,-0.117595026,0.14235481196461755,-0.589786922,1
1710515810104877000,2.148876953,-1.72324121,1.772957206,-4.225664616,0.086511195,0.3715009093284607,-0.924393237,-0.040979117,0.1691180169582367,0.717560351,0.7713145378095287,-0.121656934,0.15166727390821938,-0.606028557,1
1710515810114896100,2.158896240234375,-1.940663815,1.7529267072677612,-4.245151043,0.086566344,0.3921121060848236,-0.915835381,-0.013522662,0.16436070203781128,0.7192868590354919,0.755752664,-0.126578927,0.16143140621348792,-0.6218969,1
1710515810124915000,2.168915039,-2.072703123,1.6853978633880615,-4.254354,0.085137263,0.4141274094581604,-0.906228542,0.009299226,0.17106246948242188,0.7306914329528809,0.7396045529906186,-0.132217065,0.17147704240040462,-0.637259405,1
1710515810134934800,2.178934814453125,-2.149800062,1.5576112270355225,-4.223278999,0.081711181,0.4367786943912506,-0.895850301,0.055190533,0.1674083173274994,0.7150488495826721,0.7230452712055291,-0.138477872,0.18138010675304436,-0.652020685,1
1710515810144953900,2.188953857421875,-2.191012383,1.4142699241638184,-4.192061424,0.076071806,0.4594760835170746,-0.884926438,0.10797955840826035,0.2245602011680603,0.690559983,0.7062198431774073,-0.145267253,0.19087743935785925,-0.666120765,1
1710515810154973000,2.198972900390625,-2.159058809,1.2669563293457031,-4.143316746,0.068211734,0.4816990792751312,-0.873677969,0.1806894838809967,0.26231950521469116,0.6758935451507568,0.6892301453392492,-0.152452833,0.19979774572317036,-0.679559441,1
1710515810164993000,2.208992919921875,-2.168614626,1.1347020864486694,-4.106515884,0.058291841,0.5030876994132996,-0.862267256,0.2541012167930603,0.23072272539138794,0.6666038036346436,0.6721426487064777,-0.159906103,0.20807786679003376,-0.692356861,1
1710515810175011800,2.219011719,-2.206865072,1.0225188732147217,-4.076226234,0.046465322375297546,0.5240188241004944,-0.850438297,0.3160070776939392,0.20881503820419312,0.6686145663261414,0.6548984479089036,-0.167767847,0.2159509433142031,-0.704504936,1
1710515810185031000,2.229031005859375,-2.20882082,1.0386751890182495,-4.022774696,0.03345323,0.5444837808609009,-0.838104069,0.375192255,0.20038926601409912,0.6730954647064209,0.637430894,-0.17578784,0.22371099966510619,-0.716054574,1
1710515810195050000,2.239050048828125,-2.04125309,1.081899881362915,-3.979046345,0.020061236,0.563135564,-0.826121032,0.4157143831253052,0.1791587471961975,0.6955972909927368,0.6198597228612919,-0.183162148,0.23106517930782766,-0.727210187,1
1710515810205070000,2.249070068359375,-1.980428696,1.0722570419311523,-3.956174612,0.006273219,0.5801834464073181,-0.814461708,0.4087962210178375,0.13897860050201416,0.7533960342407227,0.6021386947037614,-0.18998535,0.23806450896066514,-0.738010816,1
1710515810215089200,2.259089111328125,-2.075817585,0.9659742712974548,-3.920520782,-0.008666026,0.5965129137039185,-0.802556694,0.41906628012657166,0.19285470247268677,0.8050743937492371,0.5842883008714385,-0.196953529,0.24480801057721716,-0.748255038,1
1710515810225107700,2.269107666015625,-2.143179417,0.8200736045837402,-3.904145718,-0.025260283,0.6126648783683777,-0.789939106,0.44998854398727417,0.3438323736190796,0.7871925234794617,0.5662907346144088,-0.204525938,0.2513952800980617,-0.757815664,1
1710515810235126800,2.279126708984375,-2.28270793,0.6895608901977539,-3.879819632,-0.043539785,0.6286344528198242,-0.776481271,0.4695650339126587,0.44949060678482056,0.8282238245010376,0.548167739,-0.212767112,0.25785562064728973,-0.766650555,1
1710515810245146600,2.289146728515625,-2.557565689,0.6189714670181274,-3.83011651,-0.063183136,0.6451748013496399,-0.761418104,0.4707452654838562,0.5026828646659851,0.9517867565155029,0.5297635626876468,-0.221829137,0.26473152805391825,-0.774635321,1
1710515810255165700,2.299165771484375,-2.593597412,0.5779058337211609,-3.72487545,-0.083426528,0.6619358062744141,-0.744903445,0.4705266058444977,0.5338497161865234,1.0826414823532104,0.5113030193239778,-0.231337946,0.27208645647580776,-0.78167847,1
1710515810265184800,2.309184814453125,-2.695105314,0.5089285373687744,-3.601418257,-0.103957817,0.6780157089233398,-0.727658987,0.4361110031604767,0.5411920547485352,1.2379586696624756,0.4929897505725452,-0.240882783,0.27954602323470185,-0.787902856,1
1710515810275203600,2.319203613,-2.686959982,0.2914830446243286,-3.454419851,-0.125304803,0.6933279633522034,-0.709644318,0.4382319152355194,0.5069894194602966,1.3548927307128906,0.47512585679042457,-0.250814022,0.28682774961347185,-0.793144174,1
1710515810285223700,2.329223633,-2.802809,-0.012681069,-3.339642763,-0.148055181,0.7078834176063538,-0.690638006,0.4173269271850586,0.5805687308311462,1.4432471990585327,0.4579046791769062,-0.261548185,0.29372360306167306,-0.797271844,1
1710515810295242500,2.339242431640625,-3.067331076,-0.313555688,-3.288344622,-0.172957227,0.7225000262260437,-0.66938746,0.4121081233024597,0.6813543438911438,1.5408626794815063,0.4409628219920891,-0.273745874,0.30061514874842077,-0.800153504,1
1710515810305261600,2.349261474609375,-3.595199108,-0.558958292,-3.366752386,-0.20011051,0.7381361722946167,-0.644290984,0.40044301748275757,0.6905595064163208,1.6425056457519531,0.42368161679764493,-0.287754944,0.30830441360770106,-0.801647977,1
1710515810315281700,2.359281738,-4.157225132,-0.685927212,-3.454082966,-0.229597867,0.755399227,-0.613723814,0.3766924738883972,0.6000847816467285,1.7494659423828125,0.4051729630140208,-0.303727412,0.3176283272080794,-0.801683787,1
1710515810325300700,2.369300781,-4.626779079,-0.795976639,-3.595442057,-0.260983169,0.7729500532150269,-0.578304529,0.31895115971565247,0.48916542530059814,1.8384668827056885,0.3853741059907624,-0.321082264,0.3282589069313752,-0.800399449,1
1710515810335319600,2.379319580078125,-4.374880314,-0.890599847,-3.677299738,-0.294213742,0.7883405685424805,-0.540330946,0.2510007321834564,0.34158802032470703,1.9049701690673828,0.3646764066620303,-0.339109193,0.33887974526898124,-0.798233506,1
1710515810345338600,2.389338623046875,-4.251850128,-1.056150079,-3.76087904,-0.328665018,0.7992540001869202,-0.503162444,0.1420499086380005,0.30221688747406006,1.9297523498535156,0.34407679386827306,-0.356937211,0.3478715548553724,-0.795733884,1
1710515810355358700,2.399358642578125,-4.005005836,-1.223975778,-4.103369713,-0.365890235,0.8056652545928955,-0.465862542,0.034103036,0.284224272,1.933910608291626,0.3228572660107934,-0.375362725,0.35520634877968554,-0.792902578,1
1710515810365377800,2.409377685546875,-3.714160204,-1.322292328,-4.365021229,-0.40584445,0.8065335750579834,-0.429876775,-0.062219024,0.1744692325592041,1.8697571754455566,0.30092480702636176,-0.394016883,0.36029474737381806,-0.790178946,1
1710515810375396600,2.419396728515625,-3.894999027,-1.346621633,-4.626422405,-0.447614908,0.8029605150222778,-0.393567473,-0.216279864,-0.005292118,1.832684874534607,0.2779529272474299,-0.412970855,0.3642407697634718,-0.787099706,1
1710515810385415700,2.429415771484375,-4.035566807,-1.329033852,-4.959403992,-0.491014987,0.7952917218208313,-0.355549723,-0.328138024,-0.054202855,1.766316294670105,0.25314224750907205,-0.432279363,0.3679126136279409,-0.78338626,1
1710515810395435500,2.439435547,-3.715054512,-1.441687107,-5.176100254,-0.535824299,0.7824274897575378,-0.317332,-0.500613749,-0.225420713,1.7306621074676514,0.22711938443797186,-0.451818305,0.37039738845163567,-0.779155198,1
1710515810405454600,2.44945459,-2.761817217,-1.580696702,-5.217576981,-0.580637336,0.7631238698959351,-0.283729404,-0.712484121,-0.226151824,1.6479109525680542,0.20217727166028435,-0.470828627,0.3693991066938933,-0.775234899,1
1710515810415473700,2.459473633,-1.790599942,-1.705432296,-5.292042732,-0.624634326,0.737596869,-0.256482333,-0.833633125,-0.106142342,1.5108921527862549,0.17935236923936917,-0.489098529,0.3640624415192191,-0.772058364,1
1710515810425492500,2.469492431640625,-0.426298767,-1.617991805,-5.356645107,-0.667316854,0.7058370113372803,-0.237660557,-0.924419165,-0.198634863,1.3879139423370361,0.159028738,-0.506083491,0.3536229944564075,-0.770415643,1
1710515810435512600,2.479512695,0.3924272656440735,-1.714792132,-5.320558548,-0.707831562,0.6691318154335022,-0.226356387,-1.138421059,-0.336597085,1.3140791654586792,0.14132517476837422,-0.521655677,0.338669687,-0.770198351,1
1710515810445531600,2.489531738,1.2845606803894043,-2.047814131,-5.374409676,-0.746850312,0.6282692551612854,-0.217927918,-1.475882292,-0.437473416,1.3569355010986328,0.12589964534869932,-0.537204978,0.3200731985214106,-0.770138525,1
1710515810455550700,2.499550781,2.498933792114258,-2.541201353,-5.249900341,-0.78407073,0.5833882689476013,-0.211875513,-1.771089911,-0.454360068,1.3486400842666626,0.11407181453264549,-0.553105921,0.29687721524379296,-0.770016487,1
1710515810465569800,2.509569824,3.6634483337402344,-3.298862219,-4.927747726,-0.818788588,0.5359554290771484,-0.205760211,-1.941999555,-0.448888838,1.413752794265747,0.10725733480670004,-0.569882341,0.2689870086212526,-0.769009844,1
1710515810475589600,2.519589599609375,4.294834136962891,-4.080196381,-4.42996788,-0.850255728,0.48872750997543335,-0.195476145,-2.044870853,-0.480960876,1.4588733911514282,0.10548274538393411,-0.587856035,0.2380907594263715,-0.765905787,1
1710515810485608700,2.529608642578125,4.854308605194092,-5.174909592,-4.05737257,-0.878492177,0.44415852427482605,-0.175997838,-2.141375065,-0.631917953,1.5224028825759888,0.10824885196859352,-0.607969479,0.20584992603800098,-0.759132015,1
1710515810495627500,2.539627441,5.514288902282715,-6.181719303,-3.579337835,-0.903930843,0.4017521142959595,-0.146645144,-2.276443481,-0.889133096,1.6467825174331665,0.11523380075474116,-0.630327132,0.17136259201905585,-0.748360896,1
1710515810505647600,2.549647705078125,6.289002418518066,-7.160331249,-3.059438467,-0.92518568,0.3638056516647339,-0.10806185,-2.457215071,-1.146413803,1.5757437944412231,0.12701417829029352,-0.654073452,0.13474789208186475,-0.733415709,1
1710515810515666700,2.559666748046875,7.237823963165283,-8.09017849,-2.696252823,-0.941622019,0.33127978444099426,-0.060017001,-2.750989914,-1.312404752,1.5205121040344238,0.1435414977274477,-0.678868425,0.095546639,-0.713725808,1
1710515810525685500,2.569685547,8.233824729919434,-8.883469582,-2.274798393,-0.95227772,0.3052097260951996,-0.003826343,-3.021569014,-1.351810098,1.4020655155181885,0.1647406678224113,-0.703743276,0.053218696,-0.689038392,1
1710515810535704600,2.57970459,9.387760162353516,-9.340285301,-1.933172464,-0.956057608,0.287487268,0.057492054998874664,-3.216931343,-1.573528647,1.1146119832992554,0.19060559235445704,-0.727107267,0.007813522,-0.659487417,1
1710515810545724700,2.589724609,10.83737850189209,-9.633595467,-1.555744171,-0.952538252,0.27981406450271606,0.11989732086658478,-3.490531445,-1.818479896,0.8339602947235107,0.22140116953091055,-0.747183453,-0.040811098,-0.625326346,1
1710515810555743700,2.599743652,12.679484367370605,-9.814724922,-0.952835739,-0.941460252,0.28550219535827637,0.17928068339824677,-3.670798779,-1.828638911,0.6599223613739014,0.2587991448548828,-0.762224744,-0.093025688,-0.58598879,1
1710515810565762600,2.609762451171875,14.345537185668945,-9.972219467,-0.153576627,-0.922745585,0.30809661746025085,0.23155438899993896,-3.713668108,-1.699408412,0.6749857664108276,0.3031860093586181,-0.770765945,-0.147299186,-0.540648875,1
1710515810575781600,2.619781738,15.648323059082031,-10.2800951,0.8140432834625244,-0.895885229,0.3492567539215088,0.2746082544326782,-3.755360126,-1.451566935,0.9978071451187134,0.35318974741047426,-0.772507203,-0.201337403,-0.487804273,1
1710515810585801700,2.629801758,16.819856643676758,-10.38873672,1.9746716022491455,-0.860448241,0.4088190793991089,0.3041323125362396,-3.88686657,-1.09378612,1.4753174781799316,0.40733788708214314,-0.766836721,-0.253036744,-0.426626241,1
1710515810595820500,2.639820556640625,17.288793563842773,-10.07411098,3.1774191856384277,-0.816912293,0.48376622796058655,0.31404614448547363,-4.051175594,-0.617692709,1.9230605363845825,0.46336391159810486,-0.753310427,-0.299243161,-0.358149381,1
1710515810605839600,2.649839599609375,17.03566551208496,-9.395415306,4.555484771728516,-0.766320765,0.5675100684165955,0.30114054679870605,-4.423681736,-0.279897094,2.483955144882202,0.5179239433373192,-0.733014326,-0.336541632,-0.284929512,1
1710515810615858400,2.659858398,16.62355613708496,-8.626814842,5.937210559844971,-0.708473682,0.6543229818344116,0.2644370496273041,-4.893622875,-0.220301926,2.947477340698242,0.5694897888119164,-0.707391646,-0.363064165,-0.208477866,1
1710515810625878500,2.669878418,15.220616340637207,-8.036974907,7.5238847732543945,-0.641504586,0.7379227876663208,0.2096242904663086,-5.272314072,-0.253929138,3.1851210594177246,0.6150682720198718,-0.679697742,-0.377919469,-0.129919555,1
1710515810635897600,2.679897705078125,13.735623359680176,-7.692199707,8.823178291,-0.563560963,0.8133395314216614,0.14449316263198853,-5.681174755,-0.056778193,3.1268999576568604,0.6521101077311895,-0.652944808,-0.381981226,-0.050060388,1
1710515810645916700,2.689916748046875,12.625494956970215,-7.525281906,9.721792221069336,-0.476464927,0.8761922121047974,0.07258594,-5.788259983,-0.401903152,3.0697484016418457,0.6802784034256967,-0.627051085,-0.378285484,0.030471174,1
1710515810655936800,2.699936767578125,12.011500358581543,-7.221711159,10.497620582580566,-0.382421315,0.9239670038223267,-0.006255396,-5.648416519,-0.268571377,2.9559779167175293,0.7005377793720179,-0.600973266,-0.368379472,0.11124135523039466,1
1710515810665955600,2.709955566,11.666996955871582,-6.674838066,11.071085929870605,-0.283790976,0.954221785,-0.094464786,-5.694068432,0.1772937774658203,2.891233205795288,0.7145162851837794,-0.573285831,-0.352293859,0.1915697345463691,1
1710515810675974700,2.719974609,12.341890335083008,-5.856478214,11.16571331,-0.18578501,0.9630724191665649,-0.194873422,-5.701131821,0.061845303,3.087909698486328,0.7243323113051952,-0.541868135,-0.330063948,0.2697768443595583,1
1710515810685993700,2.729993652,13.328248023986816,-4.654432297,11.024358749389648,-0.09252587,0.9460909962654114,-0.31040448,-5.490191936,0.25611865520477295,3.364436149597168,0.732490605,-0.504523783,-0.300422217,0.3444704173028909,1
1710515810696013600,2.740013672,14.207344055175781,-3.038691044,10.75919246673584,-0.005800434,0.8998819589614868,-0.436095208,-5.295194149,0.650243342,3.653731585,0.7396567354522826,-0.461811496,-0.262073522,0.41346789788515526,1
1710515810706032600,2.750032715,14.678804397583008,-1.244491458,10.55008316040039,0.075797662,0.8234857320785522,-0.562250853,-5.211463451,0.6702736020088196,3.887446403503418,0.7452249025057756,-0.415872442,-0.214300437,0.4751477488508873,1
1710515810716051500,2.760051513671875,14.392919540405273,0.370388925,10.516472816467285,0.1549081653356552,0.7207241654396057,-0.675692439,-5.045823097,0.48339277505874634,3.9574155807495117,0.7469943047538897,-0.370189555,-0.158472321,0.5290046694275432,1
1710515810726070500,2.770070556640625,12.825000762939453,1.6188161373138428,10.530984878540039,0.23220987617969513,0.6013475060462952,-0.764499784,-4.711976528,0.36708223819732666,3.8130991458892822,0.7424149925388135,-0.328738917,-0.098391254,0.5753869491638081,1
1710515810736090600,2.780090576171875,11.151312828063965,2.4592199325561523,10.475992202758789,0.3056275546550751,0.47733479738235474,-0.823858798,-4.247964382,-0.132074058,3.3901126384735107,0.7304684502497772,-0.294249068,-0.038575546,0.6150979327924424,1
1710515810746109700,2.790109619140625,9.246394157409668,2.7152771949768066,10.312417030334473,0.37118497490882874,0.3558029532432556,-0.8576864,-3.735183239,-0.778532326,2.9299826622009277,0.7119850543735841,-0.266154211,0.017852774,0.6495541846864213,1
1710515810756128500,2.800128418,7.399988651275635,2.530963897705078,10.34874439239502,0.4248882532119751,0.2427450716495514,-0.872092187,-3.155585766,-0.847176135,2.5421972274780273,0.6875880198617135,-0.243633255,0.067799237,0.6806385453380922,1
1710515810766147600,2.810147705078125,6.40713644,2.394655466079712,10.276937484741211,0.46602651476860046,0.13615776598453522,-0.874231339,-2.721199036,-0.271487892,2.019479751586914,0.6585693994767036,-0.224262064,0.11220901898864882,0.7095084592759328,1
1710515810776167700,2.820167724609375,5.389195442199707,2.4187676906585693,9.700396537780762,0.4954942762851715,0.036607973,-0.867839456,-2.527415514,0.061704434,1.6758229732513428,0.6270372224333166,-0.207361375,0.15192605871632056,0.7353532042704279,1
1710515810786186800,2.830186767578125,5.372188568115234,2.6134183406829834,8.942085266113281,0.5161188244819641,-0.056957342,-0.854621112,-2.488698483,0.2577630281448364,1.526313066482544,0.5954773871623339,-0.1923153,0.18895570218476698,0.756780985,1
1710515810796205600,2.840205566,5.437572956085205,2.845668077468872,8.481025695800781,0.5304113626480103,-0.148194104,-0.834686995,-2.490967274,0.5415503978729248,1.6310433149337769,0.5642711085760646,-0.178161558,0.22564345934054633,0.7739133048979331,1
1710515810806225700,2.850225586,5.557450294494629,3.0281121730804443,8.095385551452637,0.5385462641716003,-0.238118932,-0.808249533,-2.386675358,0.7361810207366943,1.5688087940216064,0.5330073510294664,-0.164325876,0.26243519320160374,0.7874186522266274,1
1710515810816244500,2.860244384765625,4.873314857,3.2322781085968018,7.673581600189209,0.541476309,-0.322751373,-0.776295722,-2.236712456,0.6757328510284424,1.3372700214385986,0.5013351804725937,-0.152167142,0.2978209393196457,0.7980044218912803,1
1710515810826263600,2.870263672,4.321201801300049,3.210895061,6.995820999145508,0.5394086241722107,-0.39699471,-0.742585778,-2.224055052,0.5201025605201721,1.0742661952972412,0.47015728599008805,-0.142499231,0.3292431798596049,0.8063778464872096,1
1710515810836282600,2.880282715,4.255004405975342,3.368954658508301,6.626947402954102,0.5340431332588196,-0.464708686,-0.706288755,-2.322342396,0.7163718342781067,0.7349601984024048,0.4400038576585581,-0.134346641,0.358896356,0.812121341,1
1710515810846302700,2.890302734,3.9264726638793945,3.217555046081543,6.430001735687256,0.5244535803794861,-0.527585924,-0.668282568,-2.393258333,0.7930277585983276,0.5270168781280518,0.4098160967281112,-0.126986206,0.38695376338396636,0.8162059586657568,1
1710515810856321500,2.900321533203125,3.412836790084839,2.8658275604248047,5.903931617736816,0.5097975730895996,-0.583512008,-0.63215524,-2.315095425,0.6136938333511353,0.4647359848022461,0.38066431809489976,-0.119798657,0.4117896017255881,0.8192510790642963,1
1710515810866340600,2.910340576171875,3.412754535675049,2.685396909713745,5.374078750610352,0.4926104247570038,-0.632533729,-0.597692311,-2.02419591,0.4575153589248657,0.6585140824317932,0.35369652194604273,-0.113050152,0.4340201807033422,0.8208196892390353,1
1710515810876359700,2.920359619140625,3.0942676067352295,2.423963785171509,5.064639091491699,0.473288894,-0.67702359,-0.563592732,-1.735877275,0.2661500573158264,0.9163303375244141,0.3282733845214587,-0.106369811,0.4548506245305632,0.8209951638738616,1
1710515810886379800,2.930379883,2.9692907333374023,2.141613245010376,4.388167381286621,0.45262619853019714,-0.715463519,-0.532204509,-1.550129652,-0.066931069,1.0513086318969727,0.3051002643589465,-0.099879212,0.47320386433345735,0.8203756326257078,1
1710515810896398600,2.940398681640625,2.6684138774871826,2.097860813140869,3.9326605796813965,0.4332946240901947,-0.748625696,-0.5018121,-1.450353861,-0.175370395,1.099621057510376,0.28434476299808414,-0.094428234,0.49007884193648543,0.8185683131494882,1
1710515810906417700,2.950417724609375,2.4064061641693115,1.7738227844238281,3.5077922344207764,0.41432610154151917,-0.776729286,-0.47436884,-1.505649805,-0.118427813,1.0338935852050781,0.2653877947622459,-0.089654291,0.5047550708776056,0.8165500871360498,1
1710515810916436700,2.960436767578125,2.2207493782043457,1.396889567375183,3.058701276779175,0.3957332670688629,-0.800783753,-0.449600577,-1.627758265,-0.029080868,0.888001025,0.2489583557751629,-0.084726462,0.5177075855699025,0.8141376678938904,1
1710515810926456600,2.970456543,1.980718731880188,1.0804870128631592,2.665473222732544,0.37794554233551025,-0.821117043,-0.427696377,-1.526321888,-0.086475909,0.7804340124130249,0.2349369112020472,-0.079722974,0.5289575248014979,0.8115744031896432,1
1710515810936475600,2.980475586,1.678426981,0.667398989,2.252166509628296,0.3611631393432617,-0.837882102,-0.409285963,-1.369677424,-0.123253942,0.8296658396720886,0.2232829603363077,-0.07462265,0.538320053,0.8091896319706897,1
1710515810946494500,2.990494384765625,1.4004758596420288,0.29813748598098755,1.8244324922561646,0.345866323,-0.851323485,-0.394493401,-1.272730827,-0.166254759,0.9366841912269592,0.21431340788959272,-0.069328794,0.5458450500858456,0.8070419106979289,1
1710515810956514600,3.000514648,1.100533366203308,-0.064866029,1.3471519947052002,0.33263012766838074,-0.861558378,-0.38350302,-1.144763827,-0.270277739,1.0029795169830322,0.20799456904908198,-0.064086465,0.5514901766848329,0.8052887271277744,1
1710515810966533600,3.010533691,1.0058192014694214,-0.223072976,0.9747815728187561,0.3221205472946167,-0.869322538,-0.374856025,-1.028449774,-0.390443265,1.0819637775421143,0.2041205506220723,-0.059211633,0.5559370186287639,0.8035938484803022,1
1710515810976552700,3.020552734,0.6753956079483032,-0.426725179,0.7404324412345886,0.3135140538215637,-0.875244439,-0.368315279,-0.981818378,-0.45037818,1.057158350944519,0.20178076954428673,-0.054722268,0.5593280255697057,0.8021484891110987,1
1710515810986571500,3.030571533203125,0.21594515442848206,-0.807834327,0.32710930705070496,0.30637669563293457,-0.87861681,-0.366286576,-1.036448598,-0.380675852,0.7834467887878418,0.20144692314193488,-0.050206811,0.5606567483329156,0.8015999477245703,1
1710515810996591600,3.040591552734375,-0.39196077,-0.970494628,-0.086291052,0.30212271213531494,-0.878605127,-0.369831026,-0.901808262,-0.293727756,0.41254061460494995,0.20349563688149033,-0.046404854,0.5594024345992239,0.802187699,1
1710515811006610700,3.050610595703125,-0.547634482,-1.099027038,-0.305513412,0.30003124475479126,-0.876124382,-0.377342582,-0.761380672,-0.324666142,0.5819326639175415,0.20712771701328886,-0.043297009,0.5562859669682104,0.8035978287368292,1
1710515811016629800,3.060629638671875,-0.649075925,-1.144827485,-0.545825899,0.29936906695365906,-0.872631729,-0.38586536,-0.918753743,-0.261630416,0.5032209753990173,0.2117810324032924,-0.040549227,0.5526509514452222,0.8050350881213701,1
1710515811026648600,3.070648681640625,-0.813919485,-1.295071125,-0.913341582,0.3009697198867798,-0.867591143,-0.395857215,-0.920537472,-0.171364605,0.27424493432044983,0.21793349351360625,-0.038437528,0.5482644835185535,0.8064947063145801,1
1710515811036668400,3.080668457,-1.198470116,-1.441113353,-1.265612721,0.3048635721206665,-0.860293567,-0.408599466,-0.785973072,-0.239102364,0.19686871767044067,0.22588744365027855,-0.036971285,0.5425250112437137,0.8082542147478372,1
1710515811046687500,3.0906875,-1.679570913,-1.59100616,-1.72456038,0.31126415729522705,-0.849711776,-0.425563931,-0.648529053,-0.40057826,0.18499413132667542,0.2357344836667729,-0.036498566,0.534682979,0.8106857195891266,1
1710515811056706600,3.100706543,-2.036100388,-1.701983809,-2.251642942,0.32085680961608887,-0.835187733,-0.446668118,-0.577509522,-0.367159188,0.2716652750968933,0.24787443652785734,-0.037338926,0.5246634557295585,0.8135677104606769,1
1710515811066726700,3.110726563,-2.047716618,-1.754066944,-2.644603968,0.3332734704017639,-0.817742109,-0.469283462,-0.651419044,-0.110389173,0.4140010476112366,0.2620064558037771,-0.039288346,0.5136289526137711,0.8160849280218527,1
1710515811076745700,3.120745849609375,-2.113930702,-1.893835783,-3.026212215,0.3473811745643616,-0.798014641,-0.492441922,-0.796279311,0.051966548,0.5861616134643555,0.277808414,-0.041841173,0.5020242588067431,0.8179508385074177,1
1710515811086764500,3.130764648,-2.081684351,-2.001788139,-3.356607437,0.36278754472732544,-0.776156366,-0.515719593,-0.932123303,0.023241758346557617,0.6332124471664429,0.2953219564692989,-0.044784835,0.49003523005818095,0.8189291092057036,1
1710515811096783600,3.140783691,-2.111406326,-2.169029713,-3.752445459,0.3789088726043701,-0.751779556,-0.539681137,-1.034029484,0.013925433158874512,0.6498497724533081,0.3144093824001848,-0.048069813,0.4773350347968363,0.8191382376484505,1
1710515811106803700,3.150803711,-2.124830961,-2.345277548,-4.046939373,0.39537766575813293,-0.72498548,-0.563979387,-1.080390334,0.10804200172424316,0.6292261481285095,0.3352761652940657,-0.051444856,0.46407297874271547,0.8182785530055162,1
1710515811116822800,3.160822754,-2.334312201,-2.473813772,-4.253594875,0.41097694635391235,-0.695398569,-0.589507341,-1.076229453,0.2112676501274109,0.515502393,0.3571989008796245,-0.054916689,0.44970044670017445,0.8168003418027456,1
1710515811126841600,3.170841552734375,-2.652564287,-2.602769375,-4.439142227,0.42522192001342773,-0.662109137,-0.617088377,-1.061696291,0.23870813846588135,0.44625115394592285,0.3798867586781988,-0.058766597,0.43359231518272945,0.8150033956609577,1
1710515811136860700,3.180860595703125,-2.988702774,-2.62539959,-4.569617271,0.43764540553092957,-0.624719799,-0.646677434,-1.046928644,0.2914983034133911,0.3450876474380493,0.40298069311138945,-0.063187436,0.4155341469600232,0.8129854873913532,1
1710515811146880500,3.190880615234375,-3.23265481,-2.56130147,-4.741693974,0.4486263394355774,-0.58343631,-0.677005649,-1.021380067,0.392197847,0.2531013488769531,0.426142442,-0.068564694,0.39597482962416397,0.8104971898246467,1
1710515811156899600,3.200899658203125,-3.389223099,-2.512004375,-4.962907791,0.45826098322868347,-0.538325489,-0.707250059,-1.04224515,0.488566518,0.194432795,0.44950129808537265,-0.074933821,0.37517982959286406,0.8072011682980635,1
1710515811166918700,3.210918701171875,-3.376590729,-2.421065092,-5.222814083,0.46663230657577515,-0.49021098,-0.736170888,-1.105654955,0.5710824728012085,0.088359177,0.473201072,-0.082106312,0.3537981095952081,0.8025997641979862,1
1710515811176937500,3.2209375,-3.290447712,-2.293506145,-5.479619503,0.4738774001598358,-0.439996421,-0.762786627,-1.136566401,0.6297851800918579,0.029968143,0.4972639210825542,-0.089949995,0.33243900519209546,0.7963177914514511,1
1710515811186957600,3.23095752,-3.295587301,-2.183421612,-5.713732719,0.4797021448612213,-0.387721092,-0.787120223,-1.123943329,0.6579999923706055,-0.001636982,0.5215599357783532,-0.098463134,0.3110384251742176,0.7883751542240298,1
1710515811196976600,3.240976563,-3.414111137,-2.051297188,-5.902610302,0.4837694466114044,-0.332856238,-0.809428096,-1.040974498,0.6896219849586487,-0.058125436,0.545822311,-0.107857743,0.2892276752125596,0.778968636,1
1710515811206995700,3.250995605,-3.525264025,-2.00259304,-6.033442974,0.4853525757789612,-0.27527979,-0.829851747,-0.851166606,0.6965291500091553,-0.064893007,0.5698210628192005,-0.118052608,0.2667165058522387,0.768264254,1
1710515811217015600,3.261015625,-3.491635561,-1.875206947,-6.03861475,0.4838095009326935,-0.216342553,-0.848011971,-0.657027066,0.698032022,-0.065455317,0.5932522908760188,-0.128560412,0.24385696826216743,0.7563451561573196,1
1710515811227034600,3.271034668,-3.657240868,-1.744624734,-5.790884018,0.47942301630973816,-0.157680288,-0.863302112,-0.546469927,0.7367970943450928,-0.086343765,0.6152158347221006,-0.139302333,0.221232453,0.7437477841407302,1
1710515811237053400,3.281053466796875,-3.592677116,-1.499379992,-5.680654049,0.47268661856651306,-0.098730065,-0.875682473,-0.58534205,0.7942104339599609,-0.201343834,0.6355329755197265,-0.150692499,0.19862160739358709,0.730711457,1
1710515811247072500,3.291072509765625,-3.480713606,-1.277230144,-5.725094795,0.46440503001213074,-0.040309772,-0.884705067,-0.731876135,0.9315756559371948,-0.310958266,0.6546347933517915,-0.162624126,0.1766376284990239,0.716802521,1
1710515811257092400,3.301092285,-3.195247173,-0.967366695,-5.854467392,0.45507457852363586,0.015866754576563835,-0.890311956,-0.84847647,1.0123467445373535,-0.435752988,0.6733897115513396,-0.174463036,0.15622632763070893,0.701214953,1
1710515811267111400,3.311111328,-3.148756027,-0.707729876,-5.927253246,0.44509774446487427,0.070667766,-0.892689228,-0.825529695,0.968776286,-0.494761825,0.6915673825771509,-0.186713686,0.13708895680163855,0.6841631612360731,1
1710515811277130200,3.321130126953125,-3.219764233,-0.495814711,-6.023398399,0.43383556604385376,0.1254735141992569,-0.89221251,-0.73470819,0.7919612526893616,-0.406707108,0.7090957269610991,-0.199671224,0.1184278234399895,0.6658001081209972,1
1710515811287149300,3.331149414,-3.26130724,-0.416512907,-6.026544094,0.42064693570137024,0.1802596151828766,-0.889135897,-0.669014096,0.6343767046928406,-0.289513886,0.7258052944464798,-0.213177135,0.099937796,0.6463548871588767,1
1710515811297169400,3.341169434,-3.055182219,-0.435213357,-5.929479599,0.4044235050678253,0.23321983218193054,-0.884335995,-0.550465226,0.6187547445297241,-0.13488996,0.7415970368618717,-0.226196101,0.081653634,0.6262604139737603,1
1710515811307188500,3.351188477,-2.966464758,-0.452725083,-5.650008678,0.38553979992866516,0.28262147307395935,-0.878341734,-0.333461374,0.7259845733642578,-0.001052678,0.7561839865520197,-0.238183104,0.064015067,0.6060997746425176,1
1710515811317207600,3.36120752,-2.820927143,-0.467505604,-5.343550205,0.3646257221698761,0.3288130760192871,-0.871165931,-0.120057702,0.8335405588150024,0.042095006,0.7691603652630744,-0.249449168,0.046820385,0.5864941210522003,1
1710515811327227400,3.371227294921875,-2.695593119,-0.335965723,-5.133871555,0.3427168130874634,0.37118831276893616,-0.862997353,0.015361368656158447,0.8579530715942383,0.078909338,0.7808686848679292,-0.259928666,0.030633415608051752,0.5672238174561102,1
1710515811337246500,3.381246582,-2.758047819,-0.224849567,-5.029052258,0.3204362392425537,0.41147202253341675,-0.8532359,0.008467108,0.7117123603820801,0.006830931,0.7914561400713042,-0.270464803,0.015193872,0.5479191248399541,1
1710515811347265500,3.391265625,-2.845518589,-0.129014239,-4.997690201,0.297274649,0.4507581889629364,-0.841691673,-0.168032557,0.5165881514549255,-0.036115825,0.8010990254874265,-0.281343494,9.28579E-06,0.5282862000776138,1
1710515811357284600,3.401284668,-2.889659882,-0.025357079,-4.98583746,0.27311620116233826,0.4890640676021576,-0.828386366,-0.346114099,0.33843550086021423,-0.03860265,0.8099225229274989,-0.292546785,-0.014940001,0.5081523579372624,1
1710515811367304400,3.411304443359375,-2.920470953,0.111357681,-4.991055965,0.24810124933719635,0.5259808897972107,-0.813504696,-0.425301433,0.23546332120895386,-0.051500678,0.8180255047423147,-0.303940418,-0.029459568,0.48742877150420877,1
1710515811377323300,3.421323242,-2.799770594,0.21526330709457397,-5.02397728,0.2221466600894928,0.5609813332557678,-0.797465205,-0.388452113,0.20777177810668945,-0.052067697,0.8255570490730073,-0.315249558,-0.04341778,0.46603453921997035,1
1710515811387342300,3.431342285,-2.571948051,0.29031842947006226,-5.028926373,0.19504284858703613,0.5928142070770264,-0.781363964,-0.278126836,0.22905486822128296,-0.028557181,0.8327570479627382,-0.325751936,-0.056601246,0.4440695361160678,1
1710515811397361400,3.441361328,-2.324492216,0.4086698591709137,-4.961736202,0.1673298478126526,0.6208179593086243,-0.765888929,-0.167985857,0.30224740505218506,-0.028056264,0.8396662263165006,-0.335161247,-0.068720293,0.42178811327346233,1
1710515811407381500,3.451381591796875,-2.05887866,0.5545632839202881,-4.910704136,0.139668271,0.6450710892677307,-0.751249731,-0.072514251,0.3777104616165161,-0.058427274,0.8462696134646432,-0.343569303,-0.079594454,0.3993153669134006,1
1710515811417400300,3.461400391,-2.053405285,0.7055096626281738,-4.865273952,0.11225982010364532,0.6663657426834106,-0.737125814,0.001372464,0.30276596546173096,-0.097926497,0.8525089044595943,-0.351358745,-0.089353901,0.37655218996446205,1
1710515811427419400,3.471419434,-2.249827862,0.8113402724266052,-4.806603432,0.085030042,0.6868674159049988,-0.721791625,-0.000221618,0.096503794,-0.144129276,0.8578814820410505,-0.359686715,-0.098638973,0.353461951,1
1710515811437438500,3.481438477,-2.506165266,0.8409045338630676,-4.704257011,0.057756048,0.7072529196739197,-0.704597414,-0.050843757,-0.034141779,-0.097358525,0.8621287245589134,-0.368893057,-0.107792359,0.3302011521553577,1
1710515811447458600,3.491458496,-2.569305182,0.7360206246376038,-4.584555626,0.029920284,0.7271506786346436,-0.685825646,-0.104413621,0.005958021,-0.03902775,0.8651930823631325,-0.378637164,-0.117137046,0.30717085986461495,1
1710515811457477600,3.501477539,-2.25194931,0.5929862260818481,-4.458921432,0.001026908,0.7442885041236877,-0.667857528,-0.145054564,0.20468628406524658,-0.024937153,0.8676579333354908,-0.387371306,-0.126549234,0.2847781943377386,1
1710515811467496400,3.511496337890625,-1.960897684,0.4497758448123932,-4.289124489,-0.028409302,0.7575786113739014,-0.652125478,-0.125155121,0.41347259283065796,0.032100021839141846,0.8698977895292098,-0.394361639,-0.135706124,0.26332633874948785,1
1710515811477516300,3.521516357421875,-1.768980145,0.25285691022872925,-4.127570152,-0.058359686,0.7677428722381592,-0.638094902,-0.028905306,0.5568422675132751,0.076525927,0.8717879788221622,-0.39993373,-0.144932946,0.24296764618492586,1
1710515811487535400,3.531535400390625,-1.799066424,0.16647791862487793,-3.977241993,-0.088363409,0.7759413719177246,-0.62458545,0.12033058702945709,0.5391985774040222,0.044980586,0.8731107337646776,-0.404860093,-0.154258147,0.22354077452993815,1
1710515811497554400,3.541554443359375,-1.979548573,0.10473253577947617,-3.916482925,-0.118370898,0.7835544943809509,-0.609943271,0.240136057,0.3667905330657959,0.071918547,0.8735862332387906,-0.410136156,-0.16375809,0.20449639282397905,1
1710515811507573200,3.551573242,-2.139472961,0.11975697427988052,-3.782595873,-0.148129061,0.790841818,-0.593824089,0.25898414850234985,0.25057071447372437,0.093900621,0.8731794192551501,-0.416008939,-0.173275837,0.1856603551745023,1
1710515811517593300,3.561593262,-2.175548792,0.1220046803355217,-3.63700819,-0.176886156,0.7975353002548218,-0.576757193,0.20815140008926392,0.22378146648406982,0.030858993530273438,0.8720101899568391,-0.422304893,-0.182428014,0.1672630567148262,1
1710515811527612400,3.571612305,-2.136399984,0.07634756,-3.49343276,-0.204910234,0.8029685616493225,-0.559690416,0.15194694697856903,0.24833166599273682,-0.05681026,0.8703496567238743,-0.428443016,-0.191288729,0.14945502834523786,1
1710515811537631500,3.581631591796875,-1.909986615,0.026505693793296814,-3.323954821,-0.232177392,0.8067668080329895,-0.543342531,0.11755336821079254,0.3725699186325073,-0.115516484,0.8683984989686171,-0.434013978,-0.19990149,0.1324967944826905,1
1710515811547651600,3.591651611328125,-1.73646462,-0.021759573,-3.107890129,-0.258177638,0.8085891604423523,-0.528703988,0.091399103,0.5782212615013123,-0.174603879,0.8664543969000272,-0.43859859,-0.20803671,0.11665678344271366,1
1710515811557670400,3.60167041,-1.579327226,-0.068815231,-2.94139123,-0.282923341,0.8091539144515991,-0.51499939,0.079706818,0.7206771969795227,-0.212020576,0.8643587396293577,-0.442620151,-0.21584187,0.10190032386173307,1
1710515811567689500,3.611689453,-1.358822703,0.02094363,-2.78262639,-0.306272984,0.8080922365188599,-0.503174007,0.091398686,0.7930737733840942,-0.184066415,0.862466795,-0.44573044,-0.223018771,0.087967488,1
1710515811577708500,3.621708496,-1.362138867,0.040122382,-2.633015633,-0.327979177,0.8062368631362915,-0.492353559,0.10066896677017212,0.7853313088417053,-0.137712121,0.8605811012961121,-0.448511879,-0.229478343,0.074680591,1
1710515811587728400,3.631728271484375,-1.391456127,0.028222367,-2.575193644,-0.348827273,0.8041622638702393,-0.481292874,0.085719943,0.7361516356468201,-0.102340341,0.8583870863494364,-0.451448586,-0.235685687,0.061792001317288084,1
1710515811597747500,3.641747559,-1.372883201,0.049482115,-2.462866068,-0.368928939,0.8016982078552246,-0.470288932,0.082582444,0.6527698040008545,-0.072710097,0.8559913845983483,-0.454390097,-0.241630229,0.049228474,1
1710515811607766300,3.651766357421875,-1.308486938,0.077591889,-2.339840412,-0.387901932,0.7988117337226868,-0.45981741,0.068886399,0.5826429128646851,-0.067419291,0.8535384394948515,-0.45718126,-0.24713677,0.037161982,1
1710515811617785300,3.661785400390625,-1.179327846,0.047421202063560486,-2.182259083,-0.405703932,0.7955560684204102,-0.449994534,0.042147994,0.5891334414482117,-0.070864022,0.8510782473700901,-0.459747776,-0.252259219,0.025754040220153547,1
1710515811627805400,3.671805419921875,-0.923284054,-0.01129223,-1.965849638,-0.422140986,0.7916114330291748,-0.441756278,0.045401454,0.637603223,-0.106735945,0.848903176,-0.461546236,-0.257093251,0.015549424948305074,1
1710515811637824500,3.681824462890625,-0.738654017,-0.061828643,-1.772206187,-0.437062114,0.7872199416160583,-0.435042173,0.085697919,0.659923792,-0.11622709,0.8470402783649009,-0.462638099,-0.261619757,0.006638928,1
1710515811647843300,3.691843262,-0.682023764,-0.126397938,-1.56965816,-0.450639278,0.7828178405761719,-0.429093003,0.10325753688812256,0.688892663,-0.081694782,0.8453078649520382,-0.463407908,-0.265907158,-0.001178729,1
1710515811657863400,3.701863525390625,-0.601701796,-0.208055779,-1.41049087,-0.463032514,0.778703511,-0.423346281,0.096165329,0.6722701787948608,-0.075798988,0.843570151,-0.464089806,-0.270087976,-0.007925413,1
1710515811667882500,3.711882568359375,-0.626628101,-0.226935476,-1.22427547,-0.474191725,0.7751417756080627,-0.417489797,0.099176317,0.6181995272636414,-0.073125839,0.8417568701679937,-0.464924944,-0.274043609,-0.013803887,1
1710515811677901600,3.721901611328125,-0.569853008,-0.174082637,-1.043645978,-0.483852386,0.7721650004386902,-0.411883861,0.085430056,0.6387543678283691,-0.034527004,0.8399900840945144,-0.465885252,-0.277504953,-0.018941956,1
1710515811687920600,3.731920654296875,-0.520485163,-0.110812165,-0.88833344,-0.491883516,0.7696929574012756,-0.406968862,0.053376346826553345,0.6742159128189087,-0.001478195,0.8384128879869268,-0.466847723,-0.280301214,-0.023420079,0
1710515811697940500,3.74194043,-0.427580565,-0.043402229,-0.767737269,-0.4985511,0.7675405144691467,-0.4029001,0.035446793,0.6362834572792053,0.00392881,0.8370784826024231,-0.46770451,-0.282493262,-0.02738164,0
1710515811707959300,3.751959228515625,-0.285772026,0.019230843,-0.661404967,-0.504101932,0.7653731107711792,-0.400106817,0.041989386,0.6074450612068176,0.001333892,0.8361228528495322,-0.468179171,-0.284173983,-0.030856978,0
1710515811717978400,3.761978271484375,-0.172605798,0.082638308,-0.540265739,-0.508506835,0.7632102370262146,-0.398661792,0.052497864,0.6167185306549072,-0.009632647,0.8355758333501592,-0.46824789,-0.285329653,-0.033825813,0
1710515811727997400,3.771997559,-0.126507789,0.11996752,-0.422222465,-0.511780977,0.7613356113433838,-0.398055971,0.045975804,0.610994279,-0.025314152,0.835291022,-0.468157294,-0.286008328,-0.036291838,0
1710515811738017500,3.782017578,-0.098658323,0.11726388335227966,-0.301501632,-0.514047623,0.7599247694015503,-0.397831112,0.045404315,0.529412568,-0.042323709,0.8351364087896895,-0.468083819,-0.286324958,-0.038248321,0
1710515811748036400,3.792036376953125,-0.099558204,0.094073981,-0.211629808,-0.515573919,0.7589942216873169,-0.397632122,0.048914313316345215,0.4122857451438904,-0.060863674,0.8350089389850964,-0.468102939,-0.286467409,-0.039700913,0
1710515811758055400,3.802055419921875,-0.10096968,0.092785813,-0.120417602,-0.516463995,0.7585352063179016,-0.397353262,0.056365609,0.3262428045272827,-0.064423263,0.8348742780763905,-0.468267584,-0.286441698,-0.040765534,0
1710515811768075500,3.812075439453125,-0.031614311,0.060514741,-0.034282453,-0.51674211,0.7584143877029419,-0.397222221,0.051608324,0.27961069345474243,-0.041894972,0.8348048464946215,-0.468436587,-0.286279679,-0.041378871,0
1710515811778094600,3.822094482421875,0.041095584630966187,0.042879022657871246,0.052019678,-0.516476274,0.75843823,-0.397522181,0.040585100650787354,0.24070745706558228,0.003967702,0.8348912157414022,-0.468414532,-0.286053728,-0.041447025,0
1710515811788113400,3.832113525390625,0.10274136811494827,0.01616022,0.12111885845661163,-0.515703321,0.7585964202880859,-0.398223281,0.036745071,0.2219335436820984,0.040633798,0.8351211428371862,-0.468226814,-0.285748171,-0.041042755,0
1710515811798132500,3.842132568359375,0.1544967144727707,-0.007852704,0.1658189445734024,-0.514577806,0.7588467597961426,-0.399200946,0.027929246425628662,0.22494852542877197,0.088333875,0.8354519284871297,-0.467906556,-0.285417213,-0.040257068,0
1710515811808152300,3.852152344,0.21276187896728516,-0.005040141,0.20126934349536896,-0.513220251,0.7590379118919373,-0.400582582,0.049948155879974365,0.20530235767364502,0.11361080408096313,0.8359150847936716,-0.467386699,-0.285058556,-0.039208186,0
1710515811818171400,3.862171387,0.1745431274175644,0.014498140662908554,0.2313673347234726,-0.511556208,0.7593508362770081,-0.402115226,0.078939021,0.1706724762916565,0.11463990807533264,0.8364276360066847,-0.466864815,-0.2845692,-0.038033639,0
1710515811828190500,3.87219043,0.13570092618465424,0.027551733,0.24011607468128204,-0.509672582,0.7599499821662903,-0.403373361,0.097044349,0.14456069469451904,0.1068800687789917,0.8368555713194118,-0.466562356,-0.283959311,-0.036872594,0
1710515811838210600,3.882210449,0.10194800794124603,0.052704223,0.2404489815235138,-0.507679939,0.7606920599937439,-0.404485822,0.11732959747314453,0.10611408948898315,0.083456427,0.8372347199929443,-0.466397278,-0.283250179,-0.035791552,0
1710515811848229400,3.892229492,0.071854293,0.092310168,0.24893459677696228,-0.505518615,0.7615751624107361,-0.405529797,0.12400299310684204,0.06952548,0.073559821,0.8375873096973433,-0.466363985,-0.28238225,-0.034821528,0
1710515811858248400,3.902248535,0.066055529,0.10045891255140305,0.25564444065093994,-0.503200769,0.7625741362571716,-0.406533897,0.10815060138702393,0.081923723,0.089960039,0.8379249169139795,-0.466420271,-0.281398609,-0.033895375,0
1710515811868267500,3.912267578,0.068864092,0.10051216930150986,0.2779582738876343,-0.500766456,0.763627291,-0.40756166,0.094165385,0.094283044,0.090545297,0.8382707723424535,-0.466484951,-0.280376466,-0.032909567,0
1710515811878287600,3.922287598,0.005369276,0.10350503027439117,0.29621371626853943,-0.498114586,0.7649155855178833,-0.408394545,0.09181875,0.093223572,0.074440926,0.8385589202739595,-0.46670599,-0.279263769,-0.031879108,0
1710515811888306400,3.932306396484375,-0.014298968,0.068467736,0.2920253574848175,-0.495511502,0.7664265632629395,-0.40872851,0.079648376,0.10349243879318237,0.066199422,0.8386964971733961,-0.467154216,-0.278213383,-0.030865958,0
1710515811898325500,3.942325439453125,-0.037112139,0.041073933243751526,0.3111889362335205,-0.492942482,0.7680426239967346,-0.408801228,0.071891367,0.10425668954849243,0.022952467,0.8387591601233925,-0.467672585,-0.27727557,-0.029729803,0
1710515811908344600,3.952344482421875,-0.146434113,0.026451206,0.3039163649082184,-0.490350455,0.7700448632240295,-0.408151448,0.064035028,0.086644709,-0.00305742,0.8386046311805176,-0.468550146,-0.276378421,-0.02860526,0
1710515811918364400,3.962364501953125,-0.187932283,0.013067490421235561,0.3010910153388977,-0.487837136,0.7723332643508911,-0.406837165,0.036817759,0.078863204,0.00794214,0.8382472455850958,-0.46974705,-0.275534266,-0.027573847,0
1710515811928383200,3.972383301,-0.216765523,0.025333158671855927,0.27795612812042236,-0.485344768,0.7747347354888916,-0.405249,0.013649791479110718,0.053298890590667725,0.018225342,0.837804432,-0.471086238,-0.274687573,-0.026614908,0
1710515811938402300,3.982402344,-0.16576305,0.024348855018615723,0.22731612622737885,-0.483284622,0.7767593264579773,-0.403833032,-0.005805433,0.019322395,0.031671405,0.8374044724813446,-0.472260576,-0.273958816,-0.025892443,0
1710515811948422400,3.992422363,-0.11149396,0.002245788,0.18899697065353394,-0.481598198,0.7783039808273315,-0.402872413,-0.026214391,0.005463839,0.055033355951309204,0.8371376630233277,-0.473101135,-0.273384549,-0.025234754,0
1710515811958441500,4.002441406,-0.056401148,-0.026992792,0.13259680569171906,-0.480407059,0.7794394493103027,-0.402098626,-0.024292678,0.006785035,0.044829637,0.8369240834623637,-0.473698614,-0.273057331,-0.024647044,0
1710515811968460500,4.012460449,-0.047356784,-0.019906705,0.096033745,-0.479603857,0.7801544070243835,-0.401670903,-0.014582604,0.020871162,0.003737152,0.8368102427084385,-0.474029849,-0.272874063,-0.024171725,0
1710515811978479400,4.022479248046875,-0.074741535,-0.016271757,0.065337621,-0.479059219,0.7807863354682922,-0.401092142,-0.014165908,0.004537821,-0.020095944,0.8366455256524031,-0.474402822,-0.272756099,-0.023881487,0
1710515811988499500,4.032499512,-0.107849158,0.009726022,0.060249113,-0.478591949,0.7814329862594604,-0.400390238,-0.017242491,-0.009429634,-0.031387448,0.836439975,-0.474854491,-0.272613448,-0.023736095,0
1710515811998518500,4.042518555,-0.166081294,0.035838053,0.049861986,-0.477928311,0.7823627,-0.399366021,-0.004371554,-0.024626374,-0.042238325,0.8361347917754409,-0.475563738,-0.272316202,-0.023700497,0
1710515812008537600,4.052537598,-0.17406866,0.043764841,0.0488404,-0.477315575,0.783372164,-0.398117959,-0.011240363,-0.029297948,-0.019057065,0.8357587420999646,-0.476404232,-0.271992691,-0.023798114,0
1710515812018557400,4.062557373046875,-0.162817597,0.039518699049949646,0.052277207374572754,-0.476781875,0.7843226194381714,-0.396884292,-0.027200729,-0.017919302,-0.003139883,0.8353860664878354,-0.477217987,-0.271699915,-0.023923275,0
1710515812028576300,4.072576172,-0.124532796,0.036524773,0.058810472,-0.476310521,0.7851650714874268,-0.395783037,-0.037544519,-0.014977515,-0.007445455,0.8350543019997252,-0.477929603,-0.271462292,-0.023998322,0
1710515812038595300,4.082595215,-0.078973033,0.029546225,0.049508851021528244,-0.475846648,0.7858365178108215,-0.395007521,-0.046736389,-0.024621189,-0.006359428,0.8348218127737163,-0.478461252,-0.27123987,-0.024006886,0
1710515812048614400,4.092614501953125,-0.068417065,0.017189158126711845,0.039553422,-0.47543025,0.7863187789916992,-0.394549131,-0.046817154,-0.046313107,-0.008419991,0.8346853327367787,-0.478814184,-0.271039507,-0.023980958,0
1710515812058634500,4.102634521484375,-0.071620047,0.008469436,0.024144638,-0.475173891,0.7866907119750977,-0.394116372,-0.043686062,-0.06923753,-0.012530148,0.8345553669142763,-0.479112011,-0.270912345,-0.023993538,0
1710515812068653600,4.112653564453125,-0.050215956,-0.003511326,0.011861607432365417,-0.47507894,0.7869111895561218,-0.393790513,-0.039737433,-0.077560425,-0.020943105,0.8344563240881222,-0.479315488,-0.270853107,-0.024043433,0
1710515812078672400,4.122672363,-0.001863603,-0.018067366,-0.000461371,-0.475125611,0.7868903875350952,-0.39377597,-0.040682584,-0.085336864,-0.032325447,0.8344514946722995,-0.479312483,-0.270871846,-0.024062372,0
1710515812088692500,4.132692383,0.069765039,-0.019864466,-0.013777976,-0.475359201,0.7865991592407227,-0.394075483,-0.043439627,-0.079934001,-0.040860802,0.8345415736852835,-0.479084398,-0.270998892,-0.02404538,0
1710515812098711600,4.142711669921875,0.21603943407535553,-0.01107284,-0.021441488,-0.475720376,0.7858494520187378,-0.395133972,-0.047289908,-0.063757658,-0.053458899,0.834861497,-0.478424457,-0.271188215,-0.023944403,0
1710515812108730600,4.152730712890625,0.3492496907711029,0.031132563948631287,-0.045387033,-0.476126581,0.7844141721725464,-0.397489578,-0.061516941,-0.064733267,-0.056626946,0.8355712234306826,-0.477110445,-0.27133159,-0.023781532,0
1710515812118749400,4.162749512,0.47929903864860535,0.058105059,-0.094904512,-0.476746887,0.7822920083999634,-0.400913805,-0.088316739,-0.075123191,-0.059275866,0.8365974787298283,-0.475235098,-0.27146768,-0.023702516,0
1710515812128769300,4.172769287109375,0.6388676166534424,0.098149367,-0.150906011,-0.477744609,0.7792109251022339,-0.405697495,-0.116463214,-0.080297232,-0.083361715,0.8380243269310625,-0.472607892,-0.27164874,-0.023749194,0
1710515812138788400,4.182788330078125,0.742005467,0.19512172043323517,-0.201505795,-0.478775978,0.7753193974494934,-0.411890239,-0.139494956,-0.110554814,-0.118718684,0.8398638341100337,-0.469323406,-0.271643924,-0.023958074,0
1710515812148807400,4.192807373046875,0.7187997698783875,0.31599417328834534,-0.225211665,-0.479475707,0.7711622714996338,-0.418821931,-0.168671936,-0.131529033,-0.169220984,0.8419088979141571,-0.465877442,-0.271195937,-0.02450339,0
1710515812158826200,4.202826172,0.7648633718490601,0.43187204003334045,-0.233418986,-0.479703635,0.7669055461883545,-0.426310182,-0.22007972,-0.152861297,-0.240040898,0.8441042684707272,-0.462391446,-0.270257403,-0.025360325,0
1710515812168846300,4.212846435546875,0.7922481298446655,0.5284202694892883,-0.229547828,-0.479377955,0.7624592781066895,-0.434571832,-0.255134434,-0.230110526,-0.334898144,0.8465165176230653,-0.458728278,-0.268853967,-0.026376514,0
1710515812178865400,4.222865478515625,0.893592358,0.6535129547119141,-0.271172762,-0.478680968,0.757594883,-0.443750918,-0.246844083,-0.285975933,-0.38907361,0.8491820303506953,-0.454774247,-0.267029816,-0.027669906,0
1710515812188884500,4.232884521484375,1.103916883468628,0.7868795394897461,-0.286700577,-0.47756663,0.7517480850219727,-0.454758197,-0.260394245,-0.248986125,-0.390929431,0.8523657649854162,-0.45004186,-0.264732373,-0.029185066,1
1710515812198904600,4.242904541015625,1.262109398841858,0.8920406103134155,-0.31330955,-0.475877643,0.7448508739471436,-0.467694014,-0.295561016,-0.175331712,-0.388552666,0.8560964056011885,-0.444439266,-0.261967054,-0.03075733,1
1710515812208923600,4.252923583984375,1.5017139911651611,1.0041890144348145,-0.381940812,-0.473986328,0.7366480827331543,-0.482376039,-0.315900207,-0.106795609,-0.38194254,0.8603068018136772,-0.437930151,-0.258899898,-0.032561848,1
1710515812218943200,4.262943115234375,1.5636359453201294,1.1446698904037476,-0.375431269,-0.471426904,0.7272101044654846,-0.498921216,-0.33760947,-0.073508143,-0.382777214,0.8650246073510838,-0.430535996,-0.255300108,-0.034544341,1
1710515812228962300,4.272962402,1.6151976585388184,1.2497823238372803,-0.479084164,-0.468431801,0.7172212,-0.515912294,-0.37115258,-0.081234694,-0.369524419,0.8698225272078138,-0.422954274,-0.251303681,-0.036945601,1
1710515812238982100,4.282982177734375,1.8285901546478271,1.377339482307434,-0.485386252,-0.465013415,0.705830455,-0.534383714,-0.398191601,-0.048161268,-0.347986042,0.8749945160157936,-0.414538681,-0.246912594,-0.039705691,1
1710515812249001000,4.293000977,1.9182978868484497,1.4834953546524048,-0.454054683,-0.460480094,0.693411112,-0.554201484,-0.408218086,-0.031881392,-0.384458005,0.8805136526778526,-0.405401784,-0.241968299,-0.042386742,1
1710515812259020000,4.30302002,2.0300710201263428,1.5988246202468872,-0.494240731,-0.455032229,0.6801209449768066,-0.574787974,-0.437973231,-0.019445717,-0.412257075,0.8861998235370695,-0.395796082,-0.236540629,-0.04520978,1
1710515812269040000,4.313040039,2.216618061065674,1.7106196880340576,-0.512313187,-0.4487032,0.665448785,-0.596526146,-0.476055741,-0.021955013,-0.438141644,0.8921541799891337,-0.385408158,-0.2306458,-0.048208612,1
1710515812279059200,4.323059082,2.4598309993743896,1.8450549840927124,-0.479606658,-0.441181153,0.6488745808601379,-0.619936347,-0.494899899,-0.032190442,-0.451245725,0.8985265766597932,-0.373845438,-0.22421288,-0.051169116,1
1710515812289078300,4.333078369140625,2.4630026817321777,1.986136794090271,-0.458369285,-0.431986392,0.631187916,-0.644196928,-0.527806818,-0.038688898,-0.476026893,0.9050841906849787,-0.361651441,-0.217047853,-0.054048214,1
1710515812299097000,4.343097168,2.3915865421295166,2.183274984359741,-0.530044019,-0.421452194,0.613035262,-0.668255925,-0.561152875,-0.036435962,-0.449038208,0.9114999562867634,-0.349453136,-0.209175894,-0.05741052,1
1710515812309117200,4.353117188,2.2138943672180176,2.325902223587036,-0.596078932,-0.409419149,0.5951292514801025,-0.691518068,-0.577198982,-0.00304234,-0.409845889,0.9175953879135718,-0.337715825,-0.200471946,-0.061464223,1
1710515812319136300,4.36313623,2.2886195182800293,2.467425584793091,-0.718274653,-0.39639616,0.5766955018043518,-0.714347541,-0.584454179,-0.013249278,-0.32761395,0.9234587785390882,-0.325979287,-0.191216448,-0.066315799,1
1710515812329155300,4.373155273,2.422605037689209,2.5378780364990234,-0.737947404,-0.382295668,0.5566146373748779,-0.737584054,-0.601575851,0.023707807064056396,-0.32223022,0.9293422898506865,-0.313439223,-0.181559451,-0.071519335,1
1710515812339175200,4.383175048828125,2.3524115085601807,2.570648670196533,-0.797152162,-0.367324293,0.535839319,-0.760229707,-0.638489425,0.095417023,-0.364922762,0.9349865106274526,-0.300673051,-0.171699913,-0.076910908,1
1710515812349194000,4.393194091796875,2.3739817142486572,2.5940866470336914,-0.790146172,-0.351553887,0.5146394968032837,-0.782020569,-0.662743688,0.074761927,-0.350242496,0.9403211549211125,-0.28783643,-0.161678406,-0.082502827,1
1710515812359213000,4.403213134765625,2.4084625244140625,2.6201133728027344,-0.84854579,-0.335024565,0.4929834008216858,-0.802948296,-0.677457213,-0.068636298,-0.351134837,0.9453600021826054,-0.274869753,-0.151566726,-0.088140543,1
1710515812369233200,4.413233154296875,2.4457976818084717,2.6777641773223877,-0.893956959,-0.317621827,0.4702579081058502,-0.823391676,-0.69865942,-0.078152657,-0.345873892,0.9501835726916863,-0.261439441,-0.141257099,-0.094059021,1
1710515812379252200,4.423252197265625,2.3895719051361084,2.713378906,-1.01587832,-0.299518883,0.44710975885391235,-0.842841268,-0.717326939,0.088290811,-0.319176435,0.954645113,-0.247928524,-0.130808333,-0.100367255,1
1710515812389271000,4.433270996,2.322761058807373,2.803708553314209,-1.139101744,-0.280702233,0.42379167675971985,-0.861166,-0.72579813,0.16983643174171448,-0.317865252,0.9586694902659889,-0.234490125,-0.120130658,-0.107405444,1
1710515812399290000,4.443290039,2.2543282508850098,2.89168644,-1.273283958,-0.26089409,0.40059611201286316,-0.878326297,-0.728669047,0.17224952578544617,-0.313095093,0.9622402620151297,-0.221212236,-0.109096279,-0.115139236,1
1710515812409310200,4.453310302734375,2.2727808952331543,2.9769725799560547,-1.336787105,-0.239925727,0.37726640701293945,-0.894486308,-0.757114172,0.20294922590255737,-0.268919945,0.9654028004656539,-0.20788415,-0.097678178,-0.123453753,1
1710515812419329300,4.463329345703125,2.2615065574645996,3.025287628173828,-1.385624886,-0.217800871,0.3534535765647888,-0.909743547,-0.773730636,0.27409482,-0.282379746,0.9682149967538756,-0.194253829,-0.085986415,-0.132028778,1
1710515812429348400,4.473348388671875,2.3642115592956543,3.0244436264038086,-1.501932144,-0.195133343,0.3291214108467102,-0.923905909,-0.808300018,0.26526960730552673,-0.280287147,0.9706100345528363,-0.180338451,-0.074330988,-0.140958686,1
1710515812439367200,4.483367188,2.496441125869751,3.0464134216308594,-1.55081737,-0.171675742,0.3035362958908081,-0.937226355,-0.825196326,0.2828133702278137,-0.267210841,0.9726541062572746,-0.165711113,-0.062663082,-0.150191299,1
1710515812449387000,4.493386962890625,2.513951301574707,3.073075771331787,-1.703267336,-0.147521764,0.277152419,-0.949433446,-0.830581963,0.26207807660102844,-0.243971646,0.9742604899952589,-0.150603432,-0.051008634,-0.159791761,1
1710515812459406000,4.503406005859375,2.5080535411834717,3.1037440299987793,-1.910907865,-0.12272682,0.2506541609764099,-0.960265934,-0.851226568,0.2753927409648895,-0.225021482,0.9752645609626076,-0.135364732,-0.039286478,-0.170271098,1
1710515812469425200,4.513425048828125,2.4212634563446045,3.125739336013794,-2.088265896,-0.097415045,0.22449401021003723,-0.969594121,-0.823773444,0.4372187852859497,-0.242380917,0.9756042054021562,-0.120183081,-0.027549362,-0.181641611,1
1710515812479445200,4.523445313,2.3065688610076904,3.1599278450012207,-2.226755142,-0.071348511,0.19960488379001617,-0.977275431,-0.815431416,0.41990208625793457,-0.217228293,0.9752503417992527,-0.105440962,-0.015635968,-0.193712867,1
1710515812489464000,4.533464111328125,2.249469518661499,3.1625330448150635,-2.335562229,-0.044551864,0.17593853175640106,-0.983392477,-0.821857572,0.3736526668071747,-0.175787151,0.9742332026147762,-0.091054525,-0.003582275,-0.206315514,1
1710515812499483100,4.543483154296875,2.249457597732544,3.1293468475341797,-2.42493701,-0.017413838,0.15298683941364288,-0.98807478,-0.855419517,0.42861729860305786,-0.126671255,0.9726041239465266,-0.07676468,0.008354037,-0.219268674,1
1710515812509503200,4.553503173828125,2.325920343399048,3.1121482849121094,-2.539286375,0.010036866180598736,0.13023097813129425,-0.991432905,-0.850674212,0.4991942048072815,-0.103446245,0.9703704776940196,-0.062285709,0.020100996,-0.232589155,1
1710515812519522300,4.563522216796875,2.2813916206359863,3.1033380031585693,-2.682746887,0.037834331,0.10787730664014816,-0.993444026,-0.827202141,0.5349755883216858,-0.073633552,0.9674747538097824,-0.047679313,0.031696456,-0.24640363,1
1710515812529541400,4.573541259765625,2.2653253078460693,3.0631024837493896,-2.817790985,0.06585826,0.08664386,-0.994060099,-0.821305752,0.5602220892906189,-0.009113669,0.9638589376464262,-0.033267768,0.043164717,-0.260779936,1
1710515812539560200,4.583560302734375,2.227590799331665,3.038085699081421,-2.940991163,0.094029494,0.066571184,-0.993341208,-0.786717594,0.59916991,0.015039205551147461,0.9595428065100349,-0.01904569,0.054467084,-0.275587312,1
1710515812549580000,4.593580078,2.1727871894836426,2.9939568042755127,-3.059390306,0.12231330573558807,0.047901056706905365,-0.991334915,-0.775771081,0.5938836932182312,0.067735672,0.9545105935962162,-0.005097432,0.065624308,-0.290821746,1
1710515812559599000,4.603599121,2.0761642456054688,2.9495081901550293,-3.1989398,0.15053734183311462,0.031050099059939384,-0.988116622,-0.776773453,0.6343705058097839,0.12443864345550537,0.9487524647325102,0.008388419,0.076624648,-0.306475578,1
1710515812569618200,4.613618164,1.933899164199829,2.908773661,-3.313825846,0.17870450019836426,0.016617314890027046,-0.983762443,-0.769540191,0.6347957253456116,0.1440712809562683,0.9422648016800724,0.021160634448190288,0.087584235,-0.322518987,1
1710515812579638300,4.623638184,1.8237394094467163,2.8610031604766846,-3.404145241,0.2066846340894699,0.004604819,-0.978396773,-0.76564467,0.6372104287147522,0.20206010341644287,0.9351007505338839,0.033218141207210505,0.09847926,-0.338799439,1
1710515812589657000,4.633656982421875,1.6755329370498657,2.829857826,-3.485833168,0.2344714254140854,-0.004886908,-0.972110748,-0.754567385,0.6627849340438843,0.24077218770980835,0.927287341,0.044533290871125064,0.1093682821516114,-0.355237389,1
1710515812599676200,4.64367627,1.4813154935836792,2.795018196105957,-3.543126822,0.26204025745391846,-0.011442434,-0.964989126,-0.743638277,0.6551650166511536,0.2833179235458374,0.9188792280305449,0.054917714,0.1203722942036317,-0.371692917,1
1710515812609695200,4.653695313,1.3912396430969238,2.7572977542877197,-3.592983246,0.28925833106040955,-0.015395332,-0.957127273,-0.732984006,0.6674339771270752,0.3212934732437134,0.9099064831112301,0.064520099,0.13142877603026434,-0.388115846,1
1710515812619715300,4.663715332,1.3239845037460327,2.7094357013702393,-3.619194269,0.3159254193305969,-0.01748313,-0.948622942,-0.727210999,0.6503109335899353,0.3600761890411377,0.9004022958442361,0.073652427,0.14235115403413284,-0.404459312,1
1710515812629734100,4.673734130859375,1.2291600704193115,2.6535732746124268,-3.677382708,0.3418773412704468,-0.017581102,-0.939580142,-0.72305727,0.6608306765556335,0.4151202440261841,0.8903875472681374,0.082227365,0.15312934572661893,-0.42071408,1
1710515812639753200,4.683753173828125,1.0943028926849365,2.5804457664489746,-3.742638111,0.3667834401130676,-0.015545041,-0.930176497,-0.695885062,0.6783716082572937,0.49244755506515503,0.8798681352000156,0.090116928,0.16367862675917919,-0.436944603,1
1710515812649773000,4.693772949,0.9619767069816589,2.4768285751342773,-3.833589792,0.39071938395500183,-0.010759353,-0.920446992,-0.669100821,0.6167622208595276,0.5818544030189514,0.8688002077945435,0.097076451,0.1742201924331742,-0.453221658,1
1710515812659792100,4.703792236328125,0.7980820536613464,2.333847999572754,-3.917227507,0.41306039690971375,-0.003265638,-0.910697818,-0.644353211,0.5396273732185364,0.6576460003852844,0.857245506,0.10297433214814786,0.1845193412100641,-0.469552211,1
1710515812669811200,4.713811279296875,0.5500538349151611,2.2079989910125732,-4.028813362,0.4335838556289673,0.007427865,-0.901082635,-0.63135308,0.477221817,0.7092490792274475,0.845225374,0.10752637794865971,0.19467091211774745,-0.485937804,1
1710515812679830000,4.723830078,0.2953358590602875,2.065004825592041,-4.096931934,0.4521714448928833,0.021625014021992683,-0.891668856,-0.627723932,0.42841774225234985,0.7601838111877441,0.8327860812952773,0.11054533147306737,0.204805512,-0.502296639,1
1710515812689850000,4.733850098,-0.039456785,1.9613124132156372,-4.131124973,0.468800813,0.039458103477954865,-0.882422149,-0.626302123,0.39843863248825073,0.830420196,0.8200724677417399,0.11190205399876454,0.21509729200045186,-0.518355408,1
1710515812699869200,4.743869141,-0.309388399,1.8669408559799194,-4.159169674,0.48358532786369324,0.060795393,-0.87318337,-0.610431671,0.3425707221031189,0.8752890229225159,0.8071248073400273,0.11165934634206194,0.2257000461768597,-0.533986269,1
1710515812709888300,4.753888184,-0.572643459,1.7325564622879028,-4.169665813,0.49620741605758667,0.085096166,-0.864023626,-0.598136187,0.291063517,0.9204811453819275,0.7940000309810805,0.10993986476343927,0.23643476766237428,-0.549159238,1
1710515812719908400,4.763908447265625,-0.742398143,1.612264872,-4.190867424,0.5064862370491028,0.11181709915399551,-0.854967058,-0.585862517,0.2935173809528351,0.9520128965377808,0.7806716197678432,0.1069229968128524,0.2471516453725415,-0.563946479,1
1710515812729927200,4.773927246,-0.888946295,1.4629838466644287,-4.199097633,0.5143258571624756,0.1402411013841629,-0.846050501,-0.555478871,0.2927880883216858,0.9774743914604187,0.7671590363361112,0.10285457943845631,0.25767361221948465,-0.578353247,1
1710515812739946200,4.783946289,-0.986863256,1.293123483657837,-4.225677013,0.5193887948989868,0.1699599176645279,-0.837465823,-0.519617736,0.2702561616897583,1.013765811920166,0.7534563302240187,0.097782411,0.2677791927825686,-0.592483444,1
1710515812749966000,4.793966064453125,-1.085663676,1.1180310249328613,-4.249226093,0.5216020941734314,0.20069359242916107,-0.829248667,-0.475230753,0.2733054459095001,1.0161535739898682,0.7395729421094985,0.091755775,0.2774104082830376,-0.606346687,1
1710515812759985200,4.803985107421875,-1.402088642,0.9245354533195496,-4.26510191,0.5207386016845703,0.233088419,-0.821280181,-0.443269789,0.2762957513332367,1.0517946481704712,0.7256104806187519,0.084343408,0.28678581400366365,-0.619781952,1
1710515812770004000,4.814003906,-1.56205678,0.8994364738464355,-4.33249712,0.5174279808998108,0.2677956521511078,-0.812744617,-0.419130921,0.2355613112449646,1.1038365364074707,0.7113724015960504,0.075509433,0.2965232182004699,-0.632709812,1
1710515812780023000,4.824022949,-1.614232898,0.7908481955528259,-4.340156078,0.5118999481201172,0.30299848318099976,-0.803834856,-0.380491316,0.15673357248306274,1.1309221982955933,0.6967810002218386,0.066084833,0.30612967389490603,-0.645301388,1
1710515812790043100,4.834043212890625,-1.713148355,0.7091618776321411,-4.383632183,0.5038696527481079,0.33840832114219666,-0.79472965,-0.324670494,0.099869907,1.1034148931503296,0.6818979232797425,0.056032196015624695,0.31542917787091984,-0.657556146,1
1710515812800062200,4.844062255859375,-1.966714263,0.666050375,-4.525709152,0.4934062361717224,0.3753751814365387,-0.784629762,-0.315382034,0.056189149618148804,1.1009291410446167,0.6664809455799041,0.044890971543569066,0.32506912244885494,-0.669416278,1
1710515812810081300,4.854081298828125,-2.185615778,0.6050642728805542,-4.653915405,0.48024603724479675,0.4139500856399536,-0.773310483,-0.287756473,0.036733478,1.1276805400848389,0.650292823,0.032630268,0.3350820964620197,-0.681010044,1
1710515812820101000,4.864101074,-2.311315536,0.5075590014457703,-4.77354002,0.4640045464038849,0.45356279611587524,-0.760907769,-0.273620725,0.092503488,1.1435980796813965,0.6334166155383374,0.019263976417578873,0.3452173594281764,-0.692269719,1
1710515812830120200,4.874120117,-2.486899614,0.4548591375350952,-4.867070675,0.4447774291038513,0.4936234652996063,-0.74733454,-0.275801718,0.15951374173164368,1.143254280090332,0.6158540026071091,0.004999726,0.3553979739311416,-0.70312959,1
1710515812840139300,4.88413916,-2.684993744,0.39691483974456787,-4.962432384,0.4226812422275543,0.5341577529907227,-0.732131302,-0.236569852,0.14931398630142212,1.1234276294708252,0.5975952095659989,-0.010199828,0.36582827528556533,-0.713404393,1
1710515812850159000,4.89415918,-2.999204874,0.3372223973274231,-5.101294994,0.39724457263946533,0.575440526,-0.714888155,-0.190640628,0.15415847301483154,1.1252732276916504,0.5785493828058509,-0.026657173,0.37662358057664075,-0.72299715,1
1710515812860178200,4.904178223,-3.099635839,0.46070677042007446,-5.225225925,0.3693310022354126,0.6169931292533875,-0.694920301,-0.195670754,0.17913424968719482,1.180699110031128,0.5583649213737135,-0.043772599,0.38810282213114283,-0.731907762,1
1710515812870197000,4.914197021484375,-3.159348249,0.546174943,-5.3003335,0.3392024040222168,0.6570789217948914,-0.673193276,-0.15225181,0.21023070812225342,1.2062742710113525,0.5372089644304072,-0.060893395,0.3996190117972285,-0.740272536,1
1710515812880216000,4.924216064453125,-3.004955053,0.4731936454772949,-5.349955082,0.3065083920955658,0.6947547197341919,-0.650667727,-0.132298857,0.1462029218673706,1.1931328773498535,0.5152783934535381,-0.077943401,0.4105982933469164,-0.748212592,1
1710515812890236200,4.934236083984375,-2.868475437,0.3790780305862427,-5.385248661,0.27094241976737976,0.7290329933166504,-0.628570735,-0.162635624,0.10675191879272461,1.223999261856079,0.4928693154032943,-0.094878352,0.4203721371893931,-0.75588709,1
1710515812900255200,4.944255126953125,-2.927914381,0.34134289622306824,-5.41514349,0.23279911279678345,0.7605512142181396,-0.606107712,-0.182582498,0.17751342058181763,1.2653636932373047,0.47008532227338234,-0.112017842,0.42941606017457296,-0.762937635,1
1710515812910274000,4.954274169921875,-3.10279417,0.4378792941570282,-5.445480347,0.19292032718658447,0.7901430130004883,-0.581769705,-0.145770714,0.2626066207885742,1.285108208656311,0.4465834165917521,-0.129284317,0.4386350653512086,-0.769056815,1
1710515812920294100,4.964294189453125,-3.142780066,0.5491360425949097,-5.441057205,0.15178686380386353,0.8172955513000488,-0.555867672,-0.093330503,0.24085575342178345,1.3017172813415527,0.4222656596598646,-0.14627136,0.4479630040929559,-0.774355024,1
1710515812930313200,4.974313232421875,-3.110715628,0.6400680541992188,-5.41014576,0.10998506098985672,0.8414109349250793,-0.5290851,-0.10063149,0.24637293815612793,1.3905047178268433,0.39737462991555444,-0.16264067,0.45717115504504385,-0.778868467,1
1710515812940332300,4.984332275390625,-3.015729427,0.5618627071380615,-5.36769104,0.067171544,0.8620754480361938,-0.502308607,-0.118029155,0.30740392208099365,1.4798171520233154,0.37222976475339997,-0.178602322,0.4657755834402241,-0.782687276,1
1710515812950352100,4.994352051,-2.953281164,0.1838025450706482,-5.326771259,0.022416053,0.8791035413742065,-0.476103693,-0.123124123,0.35699576139450073,1.566130518913269,0.3475167390788442,-0.195034664,0.4731909009120823,-0.785674349,1
1710515812960371000,5.004370849609375,-2.919019222,-0.275567979,-5.351106167,-0.025152367,0.8926761150360107,-0.449996561,-0.11290922,0.41648226976394653,1.6605372428894043,0.32361118854120235,-0.212889659,0.4792491075099138,-0.787574922,1
1710515812970390000,5.014390137,-2.740308046,-0.568925679,-5.494605541,-0.075809844,0.9023787975311279,-0.424223661,-0.114436805,0.40298014879226685,1.773085355758667,0.3001428651918388,-0.232149374,0.4837301352208735,-0.78868648,1
1710515812980409000,5.02440918,-2.398768187,-0.720976174,-5.650034428,-0.129103094,0.9073131680488586,-0.400144368,-0.163926795,0.23558557033538818,1.9297006130218506,0.2765028135566298,-0.251993027,0.4862379332575359,-0.789695276,1
1710515812990429200,5.034429199,-2.441169024,-1.091235638,-5.793898106,-0.184527531,0.907592773,-0.377127707,-0.31676954,0.095932066,2.1591711044311523,0.25291336933517944,-0.272579796,0.48696652323625994,-0.790315769,1
1710515813000448300,5.044448242,-2.524569273,-1.589264035,-5.926853657,-0.242704481,0.9041916728019714,-0.351471394,-0.493211746,0.023344398,2.3368687629699707,0.22942396230148102,-0.295253088,0.4869187998270756,-0.789367136,1
1710515813010491400,5.054491455078125,-2.412344456,-1.973344326,-6.069336891,-0.302821904,0.8961360454559326,-0.324405581,-0.586216152,0.1321079134941101,2.263904333114624,0.8137583735544939,-0.550615547,-0.186063773,-3.92E-18,1
1710515813020511500,5.064511474609375,-2.417635202,-2.235499859,-6.218587399,-0.364304483,0.8831002712249756,-0.295662105,-0.669890404,0.19857996702194214,2.2016525268554688,0.8045928918547319,-0.554435083,-0.21159086,-0.021477261,1
1710515813030530600,5.074530517578125,-2.136637449,-2.24770546,-6.174180031,-0.424957573,0.8650469183921814,-0.2666547,-0.769851267,0.12118953466415405,2.1134259700775146,0.7946750033895633,-0.557022313,-0.237484294,-0.042648128,1
1710515813040549600,5.084549560546875,-1.795616746,-2.353961706,-6.216731071,-0.483740568,0.841864824,-0.239287823,-0.803322911,-0.012442887,1.9053491353988647,0.7846342372276004,-0.557678028,-0.263346366,-0.063190072,1
1710515813050569500,5.094569580078125,-1.063125253,-2.374176025,-6.224653244,-0.540768445,0.8132362365722656,-0.214979872,-0.86215508,-0.222827971,1.769713044166565,0.7749929713006855,-0.55564156,-0.289434829,-0.082920827,1
1710515813060588300,5.104588379,-0.461916417,-2.601361513,-6.304327011,-0.595704138,0.7791820168495178,-0.194966093,-0.94842416,-0.317420661,1.628636121749878,0.766300169,-0.550181169,-0.315939285,-0.10132614,1
1710515813070607400,5.114607422,0.5725166201591492,-2.921285868,-6.459419727,-0.649514914,0.7392747402191162,-0.177772179,-1.080114484,-0.554994464,1.609412670135498,0.7582312828276696,-0.541118362,-0.343954692,-0.11820013,1
1710515813080626400,5.124626465,1.853424072265625,-3.221711397,-6.337859631,-0.700866342,0.6937598586082458,-0.165781096,-1.285660028,-0.671344817,1.4718570709228516,0.751961915,-0.526898012,-0.373480841,-0.132074532,1
1710515813090646500,5.134646484,2.4982528686523438,-3.627918959,-6.079715729,-0.747921824,0.6453171968460083,-0.155494824,-1.471590996,-0.672187924,1.3574905395507812,0.7466987146475517,-0.508982539,-0.403967033,-0.142085897,1
1710515813100665600,5.144665527,2.9599549770355225,-4.125568867,-5.793394566,-0.790791571,0.5951552987098694,-0.142965049,-1.66092968,-0.630448878,1.3721977472305298,0.7411593504637931,-0.488937319,-0.435267478,-0.148880458,1
1710515813110684400,5.154684326171875,3.991922616958618,-4.572309017,-5.626955986,-0.829293489,0.5441122651100159,-0.12733461,-1.867865324,-0.816191792,1.4821165800094604,0.7352655025742715,-0.46656731,-0.467597731,-0.151828588,1
1710515813120704500,5.16470459,5.374896526,-5.206735611,-5.293393135,-0.863460243,0.4922621548175812,-0.110063858,-2.045185089,-1.12525785,1.576967477798462,0.7298659287674888,-0.439890988,-0.501461854,-0.149423848,1
1710515813130723600,5.174723633,6.6725873947143555,-5.851216793,-5.041062355,-0.893182814,0.44067057967185974,-0.089632533,-2.254934311,-1.196896195,1.6098655462265015,0.7245667305715183,-0.408429989,-0.5369997,-0.140781244,1
1710515813140742700,5.184742676,7.7279791831970215,-6.495435715,-4.594238758,-0.918053448,0.39132651686668396,-0.063571773,-2.431952477,-1.193496346,1.676013708114624,0.7182508091950133,-0.373118858,-0.573582104,-0.126101664,1
1710515813150762500,5.194762451171875,8.730247497558594,-7.114522934,-4.048069954,-0.937309563,0.3471509516239166,-0.030611537,-2.732703924,-1.302519083,1.752642035484314,0.7101103357393594,-0.334792065,-0.610416665,-0.105114813,1
1710515813160781300,5.20478125,9.749056816101074,-7.652283669,-3.455658913,-0.950498164,0.3105984330177307,0.009035031,-3.121538401,-1.2837888,1.8541240692138672,0.6996097799314185,-0.293752006,-0.646704936,-0.077643693,1
1710515813170800400,5.214800293,10.75143814086914,-8.114537239,-2.774632692,-0.957289159,0.28403952717781067,0.054025192,-3.490144253,-1.095379949,1.904852271080017,0.6863592294197395,-0.250177662,-0.681486415,-0.043569444,1
