time,seconds_elapsed,rotationRateX,rotationRateY,rotationRateZ,gravityX,gravityY,gravityZ,accelerationX,accelerationY,accelerationZ,quaternionW,quaternionX,quaternionY,quaternionZ
1710515807990808800,0.034808837890625,-0.1464921534061432,0.015597173944115639,-0.09084080159664154,-0.37233373522758484,0.8852288126945496,-0.27881449460983276,-0.11639004945755005,-0.08768248558044434,0.010305583477020264,0.799629469868906,-0.553524397268747,-0.2328164237530122,-3.4380848953370337e-17
1710515808000828400,0.044828369140625,-0.1934032142162323,0.025059811770915985,0.06218815967440605,-0.3720610737800598,0.8857471942901611,-0.27752944827079773,-0.07097786664962769,-0.06088751554489136,-0.019101381301879883,0.7992275950214988,-0.5541814693010596,-0.23263313244847547,-0.00018714351890431063
1710515808010847500,0.054847412109375,-0.17776726186275482,0.0084811020642519,-0.024380285292863846,-0.3719932734966278,0.8862589597702026,-0.2759817838668823,0.08500596880912781,-0.029142320156097412,-0.004764646291732788,0.7987431650116321,-0.55491166709289,-0.23255568260675027,-0.0004403757216011443
1710515808020866600,0.064866455078125,-0.17041081190109253,0.05331680178642273,0.0024180386681109667,-0.37194669246673584,0.8866915702819824,-0.2746516466140747,-0.05070647597312927,-0.024066567420959473,-0.0021885335445404053,0.7983264839404856,-0.5555572555367427,-0.23244421485816583,-0.0007325620898621361
1710515808030885600,0.0748857421875,-0.14940565824508667,0.05597064271569252,-0.03132234886288643,-0.3719028830528259,0.8871021866798401,-0.27338260412216187,-0.034713298082351685,-0.016313612461090088,0.00025030970573425293,0.7979285822491842,-0.5562103678016491,-0.23224713518030607,-0.0011413159114217683
1710515808040905700,0.08490576171875,-0.19019916653633118,0.04109880328178406,-0.022696368396282196,-0.37198713421821594,0.8874490857124329,-0.2721394896507263,-0.009024888277053833,-0.03030174970626831,-0.0037547051906585693,0.797538347349723,-0.5568242858671854,-0.23211413181415974,-0.0015689702559668125
1710515808050929400,0.094929443359375,-0.15671975910663605,0.03569791465997696,-0.048755668103694916,-0.3721313178539276,0.8878298997879028,-0.27069684863090515,-0.02575695514678955,-0.09129029512405396,-0.004388362169265747,0.7970876405896055,-0.5569211178389846,-0.2334318748640935,-2.1992899455547588e-17
1710515808060948500,0.104948486328125,-0.05281440168619156,0.02979789488017559,-0.045850157737731934,-0.3723836839199066,0.8879749774932861,-0.2698723077774048,-0.007499188184738159,-0.05370050668716431,0.009054064750671387,0.7968288303157026,-0.5573008793399632,-0.23340860785049145,-0.0003680796895847717
1710515808070968300,0.11496826171875,-0.01822926104068756,0.028692683205008507,-0.02061803825199604,-0.3727436363697052,0.8878657817840576,-0.2697346806526184,-0.023435622453689575,-0.005526185035705566,-0.0029396414756774902,0.7967854734035682,-0.5573491495777594,-0.23344076437959696,-0.0006631552016867989
1710515808080987400,0.1249873046875,-0.017350416630506516,0.039712417870759964,-0.01549757830798626,-0.3728862702846527,0.8878099322319031,-0.2697216868400574,-0.03833818435668945,0.006172239780426025,-0.015571683645248413,0.7967812528327078,-0.5573785361349954,-0.23338450926801882,-0.0008732574544508697
1710515808091006200,0.135006103515625,-0.055141203105449677,0.04715169221162796,0.013313030824065208,-0.37270498275756836,0.8879198431968689,-0.2696099281311035,-0.035040438175201416,-0.004725754261016846,-0.017758578062057495,0.7967459198166212,-0.5575174557334305,-0.23317228845258425,-0.0010285321023103561
1710515808101025300,0.145025390625,-0.07550054043531418,0.04996281862258911,0.009088192135095596,-0.3725167512893677,0.888119101524353,-0.2692137658596039,-0.0254630446434021,-0.0280725359916687,-0.007336258888244629,0.7966213703868751,-0.5577815265878753,-0.23296542740833923,-0.0012068039317448898
1710515808111045400,0.15504541015625,-0.09588278084993362,0.05357885733246803,0.004364543594419956,-0.3723607063293457,0.8883525133132935,-0.26865890622138977,-0.01153525710105896,-0.03834623098373413,-0.00441211462020874,0.7964468426725146,-0.5581186742158286,-0.23275329004094727,-0.0014418566275294184
1710515808121064400,0.165064453125,-0.11007316410541534,0.048914384096860886,-0.004155974369496107,-0.37224894762039185,0.8886173963546753,-0.26793643832206726,0.00471043586730957,-0.03501009941101074,0.00992584228515625,0.7962194191764242,-0.5585227833879673,-0.23255983489340776,-0.0017113354725758144
1710515808131083500,0.17508349609375,-0.08349135518074036,0.014977190643548965,-0.010968074202537537,-0.3722873628139496,0.8888355493545532,-0.2671583294868469,0.010577738285064697,-0.030955791473388672,0.01923385262489319,0.7959744490006934,-0.5589098664524543,-0.23246632343405974,-0.0019796047140442927
1710515808141102300,0.185102294921875,0.023277435451745987,0.006412677001208067,-0.014141497202217579,-0.37245070934295654,0.8888269066810608,-0.26695963740348816,0.011915981769561768,-0.043169379234313965,0.02379584312438965,0.795911777216319,-0.5589865615674162,-0.2324956090281791,-0.0021098252211448876
1710515808151122400,0.195122314453125,0.04570364952087402,0.0033532376401126385,-0.014204880222678185,-0.3726041913032532,0.8886508345603943,-0.2673318684101105,0.008590400218963623,-0.04097902774810791,0.023725539445877075,0.7960286860034473,-0.558804310272028,-0.23253346075308903,-0.002145283159353964
1710515808161141500,0.2051416015625,0.06769657135009766,0.0005952678620815277,-0.046103425323963165,-0.37295886874198914,0.8883445262908936,-0.2678547501564026,-0.009899497032165527,-0.009163320064544678,0.022707313299179077,0.7961926137383829,-0.5585240915734151,-0.2326444960621529,-0.0022373238795694275
1710515808171160600,0.21516064453125,0.07097092270851135,-0.011853411793708801,-0.06022803112864494,-0.3735503554344177,0.8878920078277588,-0.2685295641422272,-0.013412624597549438,-0.008070111274719238,0.020254075527191162,0.7964039153143107,-0.5581382321988784,-0.23284530401311354,-0.0023941513163496116
1710515808181179400,0.225179443359375,0.0656331479549408,-0.02035997435450554,-0.08435653150081635,-0.37432825565338135,0.8873879909515381,-0.269111692905426,-0.005707204341888428,-0.037000298500061035,0.019676536321640015,0.7965860285696674,-0.5577520241800181,-0.23314551866010044,-0.0025883612307904163
1710515808191199200,0.23519921875,0.06631997227668762,-0.029681570827960968,-0.09637750685214996,-0.37526142597198486,0.886833667755127,-0.2696388363838196,-0.010847002267837524,-0.0366138219833374,0.01931867003440857,0.7967506150989664,-0.5573596098347843,-0.23351841729416184,-0.0028254092239629724
1710515808201218300,0.24521826171875,0.050939954817295074,-0.04348105937242508,-0.1053563579916954,-0.37627288699150085,0.8862828016281128,-0.2700400650501251,-0.01671728491783142,-0.030401945114135742,0.0178583562374115,0.7968756097668641,-0.556996905372174,-0.23395388117742885,-0.003059798273145286
1710515808211237400,0.2552373046875,0.015141746029257774,-0.049648940563201904,-0.1034974679350853,-0.3773311376571655,0.8858139514923096,-0.27010175585746765,-0.012912362813949585,-0.03240501880645752,0.012121707201004028,0.7968939591566627,-0.5567646270869692,-0.23444034480229103,-0.003307466439416582
1710515808221255700,0.265255615234375,0.006889407988637686,-0.05383462831377983,-0.08699280023574829,-0.378341406583786,0.8854265809059143,-0.2699589729309082,-0.013458579778671265,-0.02414405345916748,0.0025184154510498047,0.796848264157566,-0.5566242510065249,-0.23492541895468652,-0.003540604750374718
1710515808231275800,0.27527587890625,-0.05054618790745735,-0.07714208960533142,-0.0711270123720169,-0.37922680377960205,0.8851906657218933,-0.2694896161556244,-0.01995834708213806,-0.02108532190322876,-0.0009568631649017334,0.7967001728560473,-0.5566300258566368,-0.2354107124512566,-0.0037038110064831964
1710515808241294800,0.285294921875,-0.09428594261407852,-0.09266308695077896,-0.05051495134830475,-0.3800239562988281,0.8851681351661682,-0.2684386074542999,-0.02061086893081665,-0.017934739589691162,0.0010591447353363037,0.7963698378806104,-0.5568788177300077,-0.23593785537661646,-0.0038036750293441936
1710515808251314000,0.29531396484375,-0.06758882105350494,-0.12586045265197754,-0.04017815738916397,-0.3807368576526642,0.8852339386940002,-0.2672085762023926,-0.019760608673095703,-0.007700860500335693,-0.0030700862407684326,0.7959836772209804,-0.5571878025725843,-0.23651100980101578,-0.0037860260158276617
1710515808261333000,0.3053330078125,0.07161860913038254,-0.1616123914718628,-0.034308817237615585,-0.381489098072052,0.8851021528244019,-0.266571581363678,-0.021053045988082886,-0.01400822401046753,0.0020302534103393555,0.7957847046155982,-0.5571772660866263,-0.23720813078260966,-0.0035499548675965048
1710515808271352800,0.315352783203125,0.21790869534015656,-0.154312402009964,-0.003667816985398531,-0.3821583688259125,0.8845910429954529,-0.26730862259864807,-0.0180644690990448,-0.0009391307830810547,0.0011040568351745605,0.7960184033715778,-0.5565401239571802,-0.23792598712385396,-0.0030289164483435897
1710515808281372000,0.325371826171875,0.23686987161636353,-0.13676130771636963,0.010751602239906788,-0.3825884461402893,0.8839659094810486,-0.26875728368759155,-0.03007027506828308,0.030554473400115967,-0.008860856294631958,0.7964754848328762,-0.5556257738954119,-0.2385400555550275,-0.002344962693728864
1710515808291391000,0.335390869140625,0.2295254021883011,-0.10730568319559097,-0.006986115127801895,-0.38302016258239746,0.883301854133606,-0.27032116055488586,-0.0443480908870697,0.044066429138183594,0.0046048760414123535,0.796967753176507,-0.5546913985484146,-0.23907504413622305,-0.001757708161007621
1710515808301410000,0.34541015625,0.21618297696113586,-0.08728808909654617,0.0009439790155738592,-0.38341498374938965,0.8826343417167664,-0.27193692326545715,-0.03417229652404785,0.025278985500335693,0.00838741660118103,0.7974753392755379,-0.5537743903836242,-0.2395108837142526,-0.001270317926768967
1710515808311430000,0.355429931640625,0.23355291783809662,-0.058472681790590286,0.0010545002296566963,-0.3837296664714813,0.8819703459739685,-0.2736418843269348,-0.02827286720275879,0.0063048601150512695,0.0002656877040863037,0.7980102154562159,-0.5528552567222941,-0.23985437698405798,-0.0008295004468423199
1710515808321448700,0.36544873046875,0.19632510840892792,-0.042502932250499725,0.0104677090421319,-0.3839307427406311,0.8813542127609253,-0.2753402292728424,-0.04107239842414856,0.021676361560821533,0.0041002631187438965,0.7985424935376976,-0.5519865494818915,-0.24008484173735972,-0.0004482310421145529
1710515808331467800,0.3754677734375,0.16382469236850739,-0.03719125688076019,0.026124432682991028,-0.38395559787750244,0.8808963894844055,-0.2767668664455414,-0.046052396297454834,0.05959451198577881,0.006854414939880371,0.7989891120567855,-0.5512806182536936,-0.24022123862553957,-0.0000791822465412634
1710515808341486800,0.38548681640625,0.1104285791516304,-0.062094319611787796,0.07325492799282074,-0.38372132182121277,0.8806816935539246,-0.277773380279541,-0.027258962392807007,0.06803369522094727,0.009539365768432617,0.7993039212643864,-0.5507865571137402,-0.24030706238822727,0.0003952822063479858
1710515808351507000,0.3955068359375,0.07419494539499283,-0.10009309649467468,0.11968234926462173,-0.3831348717212677,0.8808104395866394,-0.27817463874816895,-0.006162732839584351,0.04587143659591675,0.01537272334098816,0.7994288114179223,-0.5505707228622861,-0.24038420480159642,0.0010945408612948588
1710515808361525800,0.40552587890625,0.11880209296941757,-0.12039197981357574,0.16157333552837372,-0.38225844502449036,0.8810679316520691,-0.27856412529945374,0.009638756513595581,0.053594112396240234,0.020645081996917725,0.799548566750695,-0.5503563071444288,-0.2404700998706469,0.0020682852328165672
1710515808371544800,0.415544921875,0.10410942882299423,-0.13915687799453735,0.20336951315402985,-0.38104939460754395,0.881450891494751,-0.2790087163448334,0.018973559141159058,0.06990420818328857,0.02411094307899475,0.7996834767578554,-0.5501356379421537,-0.24051282474077149,0.0032890806443373875
1710515808381564000,0.42556396484375,0.0833149403333664,-0.1329653561115265,0.21776710450649261,-0.37961557507514954,0.881990373134613,-0.2792581021785736,0.02060675621032715,0.07485789060592651,0.027183204889297485,0.799754838690108,-0.5500253923208545,-0.2405057525790046,0.004614060491432295
1710515808391584000,0.435583984375,0.050161514431238174,-0.1265479326248169,0.2259640395641327,-0.37804603576660156,0.8826475143432617,-0.2793113589286804,0.034021347761154175,0.06239050626754761,0.03840583562850952,0.7997629004687886,-0.550036017526737,-0.24042608098035326,0.005928417495720816
1710515808401603000,0.44560302734375,0.06508640199899673,-0.10945427417755127,0.21926885843276978,-0.37646374106407166,0.8833181262016296,-0.2793283462524414,0.04421877861022949,0.04217332601547241,0.06050229072570801,0.7997577974140212,-0.550078812559588,-0.24031048466720223,0.007195907195915826
1710515808411622000,0.455621826171875,0.0685647577047348,-0.10155933350324631,0.20456154644489288,-0.37491196393966675,0.8839337229728699,-0.2794683873653412,0.048862069845199585,0.030739426612854004,0.06689843535423279,0.7997897868866275,-0.5500785545483481,-0.2401653488435035,0.008409377940398005
1710515808421641000,0.465640869140625,0.06627470254898071,-0.1051899641752243,0.19579894840717316,-0.3734513819217682,0.884498655796051,-0.27963635325431824,0.058174192905426025,0.0278245210647583,0.07405489683151245,0.7998292509009155,-0.5500587123098385,-0.24003591916749492,0.009566366264864254
1710515808431660800,0.475660888671875,0.04792552441358566,-0.10734552145004272,0.19015677273273468,-0.3720424473285675,0.8850688338279724,-0.2797100841999054,0.06283828616142273,0.01960963010787964,0.06617885828018188,0.7998378366840228,-0.5500687495797839,-0.23993610264760198,0.010705476324664287
1710515808441680000,0.485679931640625,0.03777728229761124,-0.10712592303752899,0.1756390929222107,-0.37070804834365845,0.885669469833374,-0.27958059310913086,0.06521177291870117,-0.006717264652252197,0.04787611961364746,0.7997820795794939,-0.550157812184013,-0.2398668136051806,0.011791437107813158
1710515808451698700,0.49569873046875,0.07559417188167572,-0.10815203934907913,0.16877664625644684,-0.3694324493408203,0.886186957359314,-0.2796291708946228,0.06054872274398804,-0.027025461196899414,0.035092055797576904,0.799780839712994,-0.5501638079949762,-0.239802430228052,0.012856482410658374
1710515808461717800,0.5057177734375,0.09600676596164703,-0.09989006072282791,0.16144363582134247,-0.3682149648666382,0.8865882158279419,-0.2799628973007202,0.050694823265075684,-0.039694786071777344,0.012629181146621704,0.799867320871144,-0.5500367935150703,-0.23974587212488901,0.013921612058322087
1710515808471737900,0.51573779296875,0.07705917954444885,-0.10397002100944519,0.1494508981704712,-0.3670472502708435,0.8869675397872925,-0.2802947759628296,0.04122626781463623,-0.04131007194519043,0.0004183053970336914,0.7999524521439346,-0.549906391364254,-0.23969891240058433,0.01495545997687826
1710515808481757000,0.5257568359375,0.04476648196578026,-0.1094437763094902,0.120456263422966,-0.36607059836387634,0.8873565793037415,-0.28034067153930664,0.03696897625923157,-0.048550307750701904,-0.0006344318389892578,0.7999487818572147,-0.5498714407368755,-0.23973123806169322,0.01588992955882469
1710515808491776000,0.53577587890625,0.09846752882003784,-0.11251439899206161,0.08508629351854324,-0.3654569387435913,0.8875845074653625,-0.28041961789131165,0.04136019945144653,-0.05851328372955322,-0.0023712515830993652,0.7999563211990561,-0.5497536324629138,-0.23991902999223977,0.016727983511771728
1710515808501794800,0.545794921875,0.0277510154992342,-0.06234566867351532,0.06526598334312439,-0.3649313747882843,0.8877531886100769,-0.28056997060775757,0.04400843381881714,-0.06945472955703735,-0.00461655855178833,0.7999883383646051,-0.549623909272859,-0.24005953104933792,0.01742852858423911
1710515808511815000,0.55581494140625,-0.014405759982764721,0.11238619685173035,-0.031481605023145676,-0.36465802788734436,0.8878648281097412,-0.2805720567703247,0.038119882345199585,-0.06976479291915894,-0.008932679891586304,0.7999889538688136,-0.5496966303073373,-0.23989078549155898,0.0174295564070107
1710515808521834000,0.565833984375,-0.05023699253797531,0.12425872683525085,-0.008791472762823105,-0.3644636571407318,0.8878946900367737,-0.2807300388813019,0.008247166872024536,-0.07257169485092163,-0.09881681203842163,0.8000480395800982,-0.5498196217897501,-0.23944386716101007,0.016977866757397427
1710515808531853000,0.57585302734375,-0.09043315052986145,0.15057528018951416,-0.0350707471370697,-0.364200234413147,0.888075590133667,-0.28049954771995544,0.0021396279335021973,-0.12524288892745972,-0.22648867964744568,0.7999869465348879,-0.5501419076872185,-0.238943730551035,0.01645349006224367
1710515808541871900,0.585871826171875,-0.02478409931063652,0.162935271859169,-0.0731603354215622,-0.364245742559433,0.8880233764648438,-0.28060558438301086,0.05977180600166321,-0.12139123678207397,-0.09730854630470276,0.8000350880445305,-0.5503093376585694,-0.23844671404228293,0.015705468538036282
1710515808551891700,0.5958916015625,-0.0030324647668749094,0.16205351054668427,-0.09002374112606049,-0.36448922753334045,0.8877651691436768,-0.2811063230037689,0.04178103804588318,-0.05935013294219971,-0.02463376522064209,0.8002061735004993,-0.5502647829724318,-0.2380241717856745,0.014945169755734405
1710515808561910800,0.605910888671875,-0.06035514175891876,0.2129637748003006,-0.12959885597229004,-0.36493316292762756,0.8874369859695435,-0.2815666198730469,0.03232201933860779,-0.04072660207748413,-0.08237051963806152,0.8003678505954612,-0.5502500033684481,-0.2375744735621884,0.01395800742597225
1710515808571929900,0.615929931640625,-0.17965543270111084,0.18852686882019043,-0.15007376670837402,-0.3655904233455658,0.8872618675231934,-0.28126558661460876,0.08807876706123352,-0.05625277757644653,-0.08669984340667725,0.8002949022831268,-0.5505734823384304,-0.2371413974721613,0.012691942918070073
1710515808581950000,0.625949951171875,-0.2641831040382385,0.19331306219100952,-0.17572294175624847,-0.3665127158164978,0.8872913718223572,-0.2799692451953888,0.07561907172203064,-0.07254815101623535,-0.10247677564620972,0.7999114269279778,-0.5512876744954425,-0.23684864200850167,0.011249267370423
1710515808591968800,0.63596875,-0.3034583330154419,0.16091278195381165,-0.1817115843296051,-0.36759820580482483,0.887421190738678,-0.2781282961368561,0.06603869795799255,-0.07099956274032593,-0.07738593220710754,0.7993561489982002,-0.5522147377754393,-0.23663208231465752,0.009695882617277263
1710515808601987800,0.64598779296875,-0.28175702691078186,0.08893045783042908,-0.1975640505552292,-0.3689242899417877,0.8875550627708435,-0.27593642473220825,0.06315338611602783,-0.09512031078338623,-0.021060317754745483,0.7986864599987452,-0.5531866187688328,-0.23667773003056106,0.008259685567378586
1710515808612007000,0.6560068359375,-0.29159873723983765,0.029455944895744324,-0.2199508547782898,-0.370642751455307,0.8874481916427612,-0.27397042512893677,0.02533632516860962,-0.12057185173034668,0.022811084985733032,0.79808388403428,-0.5539412634054586,-0.23698915804389406,0.006888542242429969
1710515808622027000,0.666027099609375,-0.05216459184885025,0.004236022941768169,-0.2826826870441437,-0.3729338049888611,0.8868969082832336,-0.27264347672462463,-0.020208925008773804,-0.11281836032867432,0.13647431135177612,0.7976782188584957,-0.5542566134659687,-0.23765072008408966,0.005596495144800667
1710515808632046000,0.676046142578125,-0.010676802136003971,-0.07122623920440674,-0.32227590680122375,-0.3756273090839386,0.885948657989502,-0.27202853560447693,-0.11163175106048584,-0.12635058164596558,0.22318539023399353,0.7974925056332691,-0.5541115216301605,-0.23863393034117739,0.004502904388830388
1710515808642065000,0.68606494140625,-0.03767726197838783,-0.10071537643671036,-0.312695175409317,-0.37869781255722046,0.884757399559021,-0.27164795994758606,-0.11733502149581909,-0.1907721757888794,0.19623926281929016,0.7973784371334118,-0.5537564314442129,-0.23985378964028017,0.003440745653495893
1710515808652084000,0.696083984375,-0.03674142807722092,-0.05583631247282028,-0.34157314896583557,-0.3818454146385193,0.8836072683334351,-0.2709842622280121,-0.03122532367706299,-0.23506277799606323,0.20123660564422607,0.7971743753405021,-0.5535162036302119,-0.24109682881055203,0.002300751060123726
1710515808662103800,0.706103759765625,-0.004756861366331577,0.013358148746192455,-0.3277716040611267,-0.38488465547561646,0.882375955581665,-0.27069658041000366,-0.07651066780090332,-0.1386014223098755,0.14829084277153015,0.7970868162759438,-0.553196292397599,-0.24212717297061956,0.001001543409842694
1710515808672123000,0.716122802734375,-0.1020226925611496,0.0795946940779686,-0.31757327914237976,-0.3875713348388672,0.8812606930732727,-0.2704962193965912,-0.1154499351978302,0.025447189807891846,-0.034892886877059937,0.7970244472983651,-0.5529858982482481,-0.24281367982331784,-0.00046515269745636055
1710515808682141700,0.7261416015625,-0.24900974333286285,0.10532508790493011,-0.34657829999923706,-0.3902554214000702,0.8804264664649963,-0.26935121417045593,-0.061221688985824585,0.07356840372085571,-0.1398586928844452,0.7966621167234529,-0.5532655792078474,-0.2433548751854762,-0.002270349786442278
1710515808692160800,0.736160888671875,-0.3438105583190918,0.08427466452121735,-0.3525562882423401,-0.3930630683898926,0.8798861503601074,-0.2670239210128784,-0.055209606885910034,0.016003131866455078,-0.1678665578365326,0.7959230288364845,-0.5540639169165671,-0.24392871058776394,-0.00430105921613374
1710515808702180900,0.746180908203125,-0.3990218937397003,0.023929087445139885,-0.34063467383384705,-0.3959815800189972,0.8794975876808167,-0.26397502422332764,-0.057173967361450195,-0.008846163749694824,-0.12973198294639587,0.7949515586056691,-0.5551150773392205,-0.24466250785936647,-0.006297694313855953
1710515808712200000,0.756199951171875,-0.4277017414569855,-0.05208471789956093,-0.3343096673488617,-0.3989780843257904,0.879244863986969,-0.2602788209915161,-0.05454367399215698,-0.017107903957366943,-0.07590249180793762,0.7937717859603008,-0.5563506554889232,-0.24563088616928955,-0.008113913446449513
1710515808722219000,0.766218994140625,-0.3910190761089325,-0.09582138806581497,-0.3320220112800598,-0.4021313786506653,0.87897127866745,-0.25632038712501526,-0.04037359356880188,-0.035526275634765625,-0.023556053638458252,0.7925059361933415,-0.5575835885258356,-0.24686098417052554,-0.009732867710369904
1710515808732237800,0.77623779296875,-0.3161879777908325,-0.1089923232793808,-0.3093222677707672,-0.40522295236587524,0.8785719871520996,-0.25279611349105835,-0.048542946577072144,-0.010499358177185059,0.008152186870574951,0.7913747222761419,-0.5585883870952763,-0.2481551072320238,-0.01114918002414913
1710515808742258000,0.7862578125,-0.279431015253067,-0.1044495552778244,-0.3129897117614746,-0.40819430351257324,0.8780766725540161,-0.24971771240234375,-0.056802064180374146,0.05780601501464844,0.044792428612709045,0.7903823437810641,-0.5594013375963962,-0.24942190164057987,-0.012439168302085534
1710515808752277000,0.796277099609375,-0.23260067403316498,-0.10528365522623062,-0.32962727546691895,-0.411288321018219,0.8773787021636963,-0.247080460190773,-0.04694843292236328,0.11645692586898804,0.0767011046409607,0.7895261573890534,-0.5599995126408395,-0.25071958911339837,-0.013740159200073626
1710515808762296000,0.806296142578125,-0.2590029835700989,-0.13987018167972565,-0.33693793416023254,-0.41451144218444824,0.876599133014679,-0.2444474846124649,-0.042916566133499146,0.11259782314300537,0.04530531167984009,0.7886687157515697,-0.5605478601092129,-0.25211576104498945,-0.015020862300798306
1710515808772315000,0.81631494140625,-0.31374770402908325,-0.19239915907382965,-0.35829833149909973,-0.4179614186286926,0.8758549690246582,-0.24121883511543274,-0.02169010043144226,0.04672205448150635,0.013664796948432922,0.7876193328780622,-0.5612615118355248,-0.25372444913165765,-0.016289060933918503
1710515808782334700,0.826334716796875,-0.33200156688690186,-0.26210808753967285,-0.37471938133239746,-0.42170965671539307,0.8750980496406555,-0.2374122142791748,0.001757204532623291,-0.011923491954803467,-0.0054921954870224,0.7863837905063419,-0.5620994548585488,-0.25561317758386215,-0.017514274629909767
1710515808792353800,0.836353759765625,-0.3149397671222687,-0.31766295433044434,-0.3904586732387543,-0.425753653049469,0.8742315769195557,-0.2333524525165558,0.020235955715179443,-0.04311555624008179,-0.016021698713302612,0.7850667989480011,-0.5629016507276363,-0.25780904718383146,-0.01861693137020301
1710515808802372900,0.846372802734375,-0.3020535409450531,-0.3630574643611908,-0.39689314365386963,-0.42998218536376953,0.8732571601867676,-0.22921085357666016,0.028187662363052368,-0.04247695207595825,-0.009298980236053467,0.7837227937643828,-0.5636297924942143,-0.2602230381842014,-0.01960216377330434
1710515808812392000,0.856391845703125,-0.35718441009521484,-0.3840993642807007,-0.40529194474220276,-0.43434378504753113,0.8722571134567261,-0.2247515469789505,0.030687689781188965,-0.03381699323654175,-0.006693482398986816,0.7822751034589116,-0.5644110999669024,-0.26280093984854686,-0.020533359528074738
1710515808822411800,0.866411865234375,-0.4138125479221344,-0.37603554129600525,-0.4452202022075653,-0.43888387084007263,0.8712780475616455,-0.21967223286628723,0.03826424479484558,-0.041977882385253906,-0.015251845121383667,0.7806205237105379,-0.5654233894041613,-0.2654435489710373,-0.02163203818437129
1710515808832430800,0.876430908203125,-0.47537896037101746,-0.3921892046928406,-0.49458640813827515,-0.4438146650791168,0.8701621294021606,-0.21411839127540588,0.03899890184402466,-0.07429403066635132,-0.009117424488067627,0.7788013391921802,-0.5665671546106089,-0.26822091960840594,-0.022974359380879047
1710515808842450000,0.886449951171875,-0.4650648236274719,-0.4068472981452942,-0.5465132594108582,-0.4492219388484955,0.8688247799873352,-0.20819111168384552,0.05586552619934082,-0.13861525058746338,0.002777576446533203,0.7768494799664477,-0.5677540698701753,-0.27121902292988215,-0.024508157214862835
1710515808852469000,0.896468994140625,-0.5009293556213379,-0.42298072576522827,-0.5686140060424805,-0.4549023509025574,0.8672976493835449,-0.2021358758211136,0.0745311975479126,-0.1282685399055481,0.01703178882598877,0.7748450262555837,-0.5689142816642344,-0.274351235983925,-0.026140126532330013
1710515808862489000,0.906489013671875,-0.48606038093566895,-0.4246271848678589,-0.6115828156471252,-0.46087396144866943,0.8655837178230286,-0.19585785269737244,0.06821945309638977,-0.04006779193878174,0.025158047676086426,0.7727547890418225,-0.5700911583646492,-0.27760969684554426,-0.02791265095997601
1710515808872508000,0.9165078125,-0.4679138660430908,-0.43725430965423584,-0.637166440486908,-0.46712639927864075,0.8635848760604858,-0.18977470695972443,0.052056729793548584,0.003511190414428711,-0.006865024566650391,0.7707151705175018,-0.5710995439750698,-0.2809945926422309,-0.02976084371899439
1710515808882527000,0.92652685546875,-0.4570830464363098,-0.45896396040916443,-0.6733161807060242,-0.4736044704914093,0.8613902926445007,-0.18359126150608063,0.055544108152389526,-0.04652506113052368,-0.04205542802810669,0.7686307004682102,-0.5720615460962181,-0.28451706347463684,-0.03166388240692782
1710515808892546000,0.936546142578125,-0.2797016203403473,-0.4362170994281769,-0.7041673064231873,-0.48038551211357117,0.8587524890899658,-0.1782524436712265,0.058113813400268555,-0.056796252727508545,-0.06291244924068451,0.7668115320485538,-0.5725624687560089,-0.2881770290438551,-0.033560164666939445
1710515808902566000,0.94656591796875,-0.22421039640903473,-0.40254124999046326,-0.6985363364219666,-0.48715224862098694,0.8557838797569275,-0.17411747574806213,0.03903207182884216,-0.01679450273513794,-0.07760642468929291,0.7653791082387584,-0.5725559054563468,-0.29175502581754187,-0.035407769821299895
1710515808912584700,0.956584716796875,-0.1797819435596466,-0.3566563129425049,-0.7126337885856628,-0.49385249614715576,0.852662205696106,-0.17052015662193298,0.0032060444355010986,0.061705589294433594,-0.06138265132904053,0.7641124443116988,-0.572359030656817,-0.29520342248921505,-0.03731510931471797
1710515808922603800,0.966603759765625,-0.15322810411453247,-0.32759732007980347,-0.737652063369751,-0.5005874037742615,0.8493494391441345,-0.16738569736480713,-0.023948729038238525,0.11630314588546753,-0.0644865483045578,0.7629837269715531,-0.5719962747111953,-0.29854214388038025,-0.03935499546014234
1710515808932624000,0.976623779296875,-0.035642072558403015,-0.28198108077049255,-0.7596010565757751,-0.5074941515922546,0.8457010388374329,-0.16504406929016113,-0.02059727907180786,0.07592988014221191,-0.09250877797603607,0.7621028831113797,-0.5712799036035009,-0.3018563192087301,-0.04148842084559572
1710515808942643000,0.986642822265625,-0.03778538480401039,-0.26025301218032837,-0.7290468215942383,-0.5142097473144531,0.8419530987739563,-0.1634114533662796,-0.028377532958984375,0.0655023455619812,-0.11821971833705902,0.7614489073878121,-0.570327759122462,-0.3049926598767924,-0.04360395103270025
1710515808952662000,0.996662109375,-0.06439196318387985,-0.2324855476617813,-0.7262968420982361,-0.5207420587539673,0.8382635712623596,-0.1616845726966858,-0.058145880699157715,0.11927127838134766,-0.14091216027736664,0.7607559029686033,-0.5694628187692471,-0.3080094333403266,-0.045746698730135135
1710515808962680800,1.006680908203125,-0.10633648186922073,-0.19734439253807068,-0.7171872854232788,-0.5271356105804443,0.8346063494682312,-0.1598760187625885,-0.07633423805236816,0.1549718976020813,-0.13924174010753632,0.7600210632396313,-0.5687091460811986,-0.3108567105882507,-0.04802130499329919
1710515808972701000,1.016700927734375,-0.09559942036867142,-0.18889763951301575,-0.7078659534454346,-0.5333889722824097,0.8309916257858276,-0.15795351564884186,-0.08439368009567261,0.14792084693908691,-0.12444061040878296,0.7592374126671234,-0.5680517574578777,-0.31359279539850904,-0.05035301102096066
1710515808982720000,1.026719970703125,-0.028223305940628052,-0.19138018786907196,-0.662860095500946,-0.5393978953361511,0.8273933529853821,-0.15643009543418884,-0.09788548946380615,0.16477900743484497,-0.10936246812343597,0.7585883291152004,-0.5672481092365168,-0.31625074742713627,-0.05252519167714158
1710515808992739000,1.036739013671875,-0.013447821140289307,-0.21555928885936737,-0.6083201766014099,-0.5449718832969666,0.8239697217941284,-0.15517674386501312,-0.10325205326080322,0.20000195503234863,-0.08911620080471039,0.7580439994735841,-0.566358168148076,-0.31882605873575487,-0.05438563992059598
1710515809002758000,1.0467578125,-0.02959563210606575,-0.22727224230766296,-0.554591715335846,-0.5501026511192322,0.8208145499229431,-0.15378762781620026,-0.09981495141983032,0.23271334171295166,-0.06677787005901337,0.7574685357554336,-0.5655664140789626,-0.32131108700795147,-0.05599395093478162
1710515809012777700,1.05677783203125,-0.08977268636226654,-0.24028311669826508,-0.501697301864624,-0.5547875165939331,0.8179834485054016,-0.15203356742858887,-0.09009480476379395,0.23307263851165771,-0.052540719509124756,0.7567823250890164,-0.5649950126268466,-0.32367244563234726,-0.057423821085107775
1710515809022796800,1.066796875,-0.06747430562973022,-0.2590125799179077,-0.46511852741241455,-0.5591223835945129,0.8154195547103882,-0.14991134405136108,-0.07144713401794434,0.19542962312698364,-0.05390000343322754,0.7559831710515635,-0.564619086493252,-0.325959524357058,-0.058696713366287664
1710515809032815900,1.07681591796875,0.06407200545072556,-0.3026772439479828,-0.3991253972053528,-0.5630747079849243,0.8129917979240417,-0.14829550683498383,-0.06989049911499023,0.18500947952270508,-0.06735670566558838,0.7553815827056902,-0.5640114375818317,-0.3282428175050806,-0.05955333353756942
1710515809042835000,1.0868349609375,0.23319551348686218,-0.28732067346572876,-0.3545994758605957,-0.5665625929832458,0.8106495141983032,-0.14783164858818054,-0.07459646463394165,0.20172536373138428,-0.043223366141319275,0.7552028441590692,-0.5629095843720845,-0.3304799198680798,-0.0598709563541315
1710515809052854800,1.096854736328125,0.29801738262176514,-0.25302207469940186,-0.3224026560783386,-0.5697119235992432,0.8083152174949646,-0.14850963652133942,-0.08147221803665161,0.20541787147521973,0.0025290846824645996,0.7554211799442271,-0.5613985187625784,-0.3325310274104135,-0.05994845247426321
1710515809062873900,1.106873779296875,0.31441766023635864,-0.21324756741523743,-0.2868252396583557,-0.572524905204773,0.8061124086380005,-0.14966164529323578,-0.08923369646072388,0.1678105592727661,0.016361162066459656,0.7558041352963051,-0.5597929590851785,-0.3343665950074827,-0.05992714201278059
1710515809072893000,1.116892822265625,0.2652021646499634,-0.16799113154411316,-0.2599984109401703,-0.5750014781951904,0.8041132688522339,-0.15091589093208313,-0.07935649156570435,0.09804755449295044,0.0013952851295471191,0.7562183980251822,-0.558291427377417,-0.3359356124380638,-0.05993295115356665
1710515809082912000,1.126912109375,0.22909317910671234,-0.1403270661830902,-0.2244529277086258,-0.5771898627281189,0.8023366332054138,-0.1520126461982727,-0.06540358066558838,0.05262863636016846,0.006840839982032776,0.7565746840658968,-0.5569940235525953,-0.3372704143882047,-0.06000903631256936
1710515809092932000,1.13693212890625,0.19254262745380402,-0.10889005661010742,-0.17484356462955475,-0.5789653062820435,0.8008726239204407,-0.1529780924320221,-0.06513869762420654,0.0459139347076416,0.0036406666040420532,0.7568891964848066,-0.555906038064522,-0.33834808925261733,-0.060065263086799804
1710515809102951000,1.146950927734375,0.16495440900325775,-0.11197175830602646,-0.14492987096309662,-0.5804011821746826,0.7996804118156433,-0.15377216041088104,-0.04961901903152466,0.031465888023376465,0.004358366131782532,0.7571513570030449,-0.5549984171623371,-0.339250163758882,-0.06006658027590134
1710515809112970000,1.156969970703125,0.2590542733669281,-0.13376706838607788,-0.11244568973779678,-0.5816121101379395,0.7986280918121338,-0.15466290712356567,-0.030143260955810547,0.015321552753448486,0.01614387333393097,0.757460844447183,-0.5540590262678342,-0.3401281261956061,-0.05987146268887123
1710515809122989000,1.166989013671875,0.4334242343902588,-0.1186416894197464,-0.05932175740599632,-0.5825023055076599,0.7975755929946899,-0.15673062205314636,-0.004121899604797363,0.02704000473022461,0.00800354778766632,0.7581916974610584,-0.5526174742258307,-0.3409525096610445,-0.05925219617687024
1710515809133009000,1.1770087890625,0.48477768898010254,-0.1106167882680893,-0.026664478704333305,-0.5830076336860657,0.796607494354248,-0.15974603593349457,0.009673833847045898,0.038582444190979004,0.0006123781204223633,0.7592593408005197,-0.5508261621194396,-0.3416394652408707,-0.058295820119277926
1710515809143027700,1.18702783203125,0.5281424522399902,-0.08484378457069397,-0.0014038636581972241,-0.5832828879356384,0.7956979870796204,-0.16323575377464294,0.0009769201278686523,0.02345496416091919,0.007153868675231934,0.7604900476705756,-0.5488906595706953,-0.3422004761626977,-0.057208811520648876
1710515809153046800,1.197046875,0.5272303223609924,-0.047385092824697495,0.025742802768945694,-0.5832903385162354,0.7948960065841675,-0.16707168519496918,0.007209956645965576,-0.0034530162811279297,0.014056816697120667,0.761835352364736,-0.5469069787658364,-0.34257395103079363,-0.05606111376397513
1710515809163065900,1.20706591796875,0.5168450474739075,-0.011968140490353107,0.05922912433743477,-0.5829938650131226,0.7942661046981812,-0.17105433344841003,0.004548430442810059,-0.024475395679473877,0.011310353875160217,0.7632236492495986,-0.5449996921901202,-0.3427071227031651,-0.05492620631401416
1710515809173086000,1.2170859375,0.48843181133270264,0.00889612827450037,0.08686687797307968,-0.5824010968208313,0.7938222289085388,-0.17508690059185028,-0.0021173954010009766,-0.03175240755081177,0.012428462505340576,0.7646254362786765,-0.5431886296470857,-0.3426407242323377,-0.053772713859345005
1710515809183105000,1.22710498046875,0.4516727328300476,0.015422150492668152,0.10817030072212219,-0.5815945267677307,0.7935707569122314,-0.17886759340763092,0.004095017910003662,-0.050864338874816895,0.020466387271881104,0.7659399331213108,-0.5415683302254596,-0.34244699347968355,-0.05263126744976097
1710515809193123800,1.237123779296875,0.45865368843078613,0.007004964165389538,0.13094724714756012,-0.580617368221283,0.7934465408325195,-0.18255522847175598,0.014989256858825684,-0.044453442096710205,0.02282649278640747,0.7672246125285518,-0.540023888621195,-0.3421937788495363,-0.05142216416463439
1710515809203143000,1.247142822265625,0.5110300779342651,-0.007813876494765282,0.14965568482875824,-0.5795097947120667,0.7933650612831116,-0.1863880306482315,0.020778656005859375,-0.02033942937850952,0.02820044755935669,0.7685624857146116,-0.5384073153768139,-0.3419408502460432,-0.050058748411199665
1710515809213163000,1.2571630859375,0.5337452292442322,-0.023035705089569092,0.1755189746618271,-0.5782349705696106,0.7933235168457031,-0.19047926366329193,0.01489567756652832,-0.004581272602081299,0.039478600025177,0.7699928525159477,-0.5366652866100602,-0.34168807397926715,-0.04848481298857608
1710515809223182000,1.26718212890625,0.5426828265190125,-0.028055232018232346,0.17268191277980804,-0.5768845677375793,0.7933064699172974,-0.19460062682628632,0.0017654895782470703,-0.012086808681488037,0.04126530885696411,0.7714331032667433,-0.5348972459544216,-0.34144490517041104,-0.0468134541660902
1710515809233201200,1.277201171875,0.5608354210853577,0.003929333295673132,0.1743711531162262,-0.575532078742981,0.7932229042053223,-0.19889895617961884,-0.006285727024078369,-0.02639216184616089,0.03624048829078674,0.7729229348102395,-0.5330675325627242,-0.34115908929863825,-0.04516566114531742
1710515809243221000,1.287220947265625,0.5871197581291199,0.06637177616357803,0.17435277998447418,-0.5740707516670227,0.7930640578269958,-0.20369663834571838,-0.013621509075164795,-0.034610629081726074,0.02150699496269226,0.774563367763087,-0.531115001573082,-0.3406883235649136,-0.04358881466700844
1710515809253239800,1.29723974609375,0.5326848030090332,0.15023206174373627,0.1530778557062149,-0.572539746761322,0.7928441762924194,-0.20879773795604706,-0.023361802101135254,-0.03555041551589966,0.027508333325386047,0.776281052221992,-0.5291792298964841,-0.3399565734271302,-0.04226927570427489
1710515809263259000,1.3072587890625,0.44887080788612366,0.220625102519989,0.1365891546010971,-0.5710006952285767,0.7926340103149414,-0.21375130116939545,-0.02679288387298584,-0.03678983449935913,0.042410701513290405,0.7779227350773423,-0.5274830390681121,-0.338948361872196,-0.04137519929229444
1710515809273278000,1.31727783203125,0.44382306933403015,0.24731265008449554,0.09737437963485718,-0.5695302486419678,0.7923635840415955,-0.21862219274044037,-0.020435750484466553,-0.07036322355270386,0.04139164090156555,0.7795183042532695,-0.5259087212725515,-0.33780011597853116,-0.040774637428268076
1710515809283298000,1.327298095703125,0.47277164459228516,0.2511419653892517,0.08270622044801712,-0.5682851076126099,0.7918460369110107,-0.22367896139621735,-0.0027446746826171875,-0.09049087762832642,0.05799931287765503,0.7811616330057367,-0.5242194993835232,-0.33668150969482596,-0.04032636283105466
1710515809293317000,1.337317138671875,0.4898510277271271,0.23144148290157318,0.10388661175966263,-0.5669997334480286,0.7912738919258118,-0.22890448570251465,0.008833110332489014,-0.04516476392745972,0.055290281772613525,0.7828595701692569,-0.5224309319563819,-0.33557962087792714,-0.0397911742253839
1710515809303336000,1.3473359375,0.4232432246208191,0.1890602558851242,0.10891758650541306,-0.5656497478485107,0.7908250093460083,-0.23374465107917786,0.007406771183013916,-0.0143049955368042,0.04140785336494446,0.7844372819096517,-0.5207586834897943,-0.33457147156232564,-0.03912469774474908
1710515809313355000,1.35735498046875,0.36156758666038513,0.16021981835365295,0.1107860580086708,-0.5643676519393921,0.7905276417732239,-0.23781433701515198,0.014654397964477539,-0.0226287841796875,0.04747644066810608,0.78576413439337,-0.5193795530246519,-0.3336730608215928,-0.038498817189391514
1710515809323375000,1.367375,0.3975764811038971,0.15005970001220703,0.13233768939971924,-0.5630505084991455,0.790303647518158,-0.24164937436580658,0.015504002571105957,-0.025624573230743408,0.047283172607421875,0.7870171109082958,-0.5180737165087901,-0.33282869193272563,-0.0378003538761656
1710515809333394200,1.377394287109375,0.4455815553665161,0.15471197664737701,0.1628180891275406,-0.5614811778068542,0.7901128530502319,-0.2458876371383667,-0.00033217668533325195,-0.03132367134094238,0.048011913895606995,0.7884049199404036,-0.516617401128305,-0.331907583173978,-0.036899670569581634
1710515809343413000,1.3874130859375,0.4942516088485718,0.1461275964975357,0.16799049079418182,-0.5598134398460388,0.7898810505867004,-0.25039398670196533,-0.009186863899230957,-0.03762257099151611,0.07322448492050171,0.7898796884148132,-0.5150346222167012,-0.330971817881886,-0.035878748477603147
1710515809353432000,1.39743212890625,0.5644408464431763,0.1513708233833313,0.15643636882305145,-0.5581750273704529,0.7894614338874817,-0.25532636046409607,-0.017340779304504395,-0.03889667987823486,0.09407174587249756,0.7914904530403336,-0.5132025164969188,-0.3300908818498112,-0.034730396602985006
1710515809363452000,1.407451904296875,0.623115062713623,0.153357595205307,0.19492968916893005,-0.556363046169281,0.7888955473899841,-0.26096805930137634,-0.02383732795715332,-0.03721684217453003,0.06385526061058044,0.7933261794857394,-0.5110777296534432,-0.32911324274860043,-0.03343397012549473
1710515809373471000,1.417470947265625,0.570898175239563,0.14860039949417114,0.18819908797740936,-0.5544245839118958,0.7884002327919006,-0.26653116941452026,-0.0269048810005188,-0.030953705310821533,0.026617497205734253,0.7951340464679235,-0.5089946766809944,-0.32811405115212294,-0.03205858824023116
1710515809383490000,1.427489990234375,0.5977849364280701,0.1584969013929367,0.16092298924922943,-0.5526564121246338,0.7877930998802185,-0.27194294333457947,-0.018159687519073486,-0.02612006664276123,0.009369999170303345,0.796882483633901,-0.5069493127416015,-0.3271558169492419,-0.030818575888565337
1710515809393508900,1.4375087890625,0.6037176251411438,0.1556350737810135,0.17806921899318695,-0.550877571105957,0.787070095539093,-0.2775877118110657,-0.0077620744705200195,-0.01674520969390869,-0.015609681606292725,0.798699745446328,-0.5047848931434961,-0.3261876083545586,-0.029542905709284552
1710515809403529000,1.447529052734375,0.590540885925293,0.16193711757659912,0.15765689313411713,-0.5490745902061462,0.786348283290863,-0.2831496298313141,-0.008023858070373535,-0.022004902362823486,-0.037162601947784424,0.8004839523431249,-0.5026645581783196,-0.32519766315087334,-0.028292817946900275
1710515809413548000,1.457548095703125,0.6211128830909729,0.18604272603988647,0.15011188387870789,-0.5473769903182983,0.7854524254798889,-0.28886502981185913,-0.0020615458488464355,-0.016912877559661865,-0.036741942167282104,0.8023067979094078,-0.5004615602622446,-0.3242001146841926,-0.027136014449167335
1710515809423567000,1.467567138671875,0.6902371048927307,0.19528576731681824,0.14916114509105682,-0.5456328392028809,0.7843642234802246,-0.2950552701950073,0.0008635520935058594,-0.03566110134124756,-0.016284793615341187,0.8042723059181525,-0.498052047658184,-0.3231354670867775,-0.025956170506173167
1710515809433586000,1.4775859375,0.8123345375061035,0.198330819606781,0.14461618661880493,-0.5438843965530396,0.7829598188400269,-0.3019336760044098,-0.0021361708641052246,-0.04957646131515503,0.02465122938156128,0.8064489147390577,-0.49527764501608484,-0.32207641529344144,-0.02464076649899365
1710515809443606000,1.48760595703125,1.123725414276123,0.22979804873466492,0.1717253029346466,-0.5420272350311279,0.7808194756507874,-0.31068891286849976,-0.018611252307891846,-0.03622090816497803,0.019856691360473633,0.8092066350255639,-0.49158369685517483,-0.32093769675060535,-0.02300465898487603
1710515809453625000,1.497625,1.4444080591201782,0.2621530592441559,0.18255265057086945,-0.5397881269454956,0.7778576612472534,-0.32181739807128906,-0.04952162504196167,-0.03408306837081909,-0.014241933822631836,0.8126966233048467,-0.48675038232637075,-0.3196331783799779,-0.020809964285907
1710515809463644000,1.507643798828125,1.4723929166793823,0.2408105880022049,0.3606422245502472,-0.5367335677146912,0.7743489742279053,-0.3351133465766907,-0.05408680438995361,-0.024730265140533447,-0.050201356410980225,0.8168455952899117,-0.48095235503394207,-0.31800654851363347,-0.017890603264166395
1710515809473663000,1.5176630859375,1.2104936838150024,0.15595588088035583,0.3598025441169739,-0.5332064032554626,0.771537184715271,-0.3470180928707123,-0.03992903232574463,-0.034781694412231445,-0.11796274781227112,0.820544552560174,-0.47580200952681284,-0.3163912269358216,-0.014691194712146485
1710515809483682800,1.527682861328125,1.295930027961731,0.16058871150016785,0.3089563846588135,-0.5302582383155823,0.7688077092170715,-0.3574367165565491,-0.06642144918441772,-0.04828757047653198,-0.08926406502723694,0.8237584481307307,-0.4711799800809137,-0.315073103814268,-0.011853215933912399
1710515809493702000,1.537701904296875,1.2333356142044067,0.18376806378364563,0.3571644127368927,-0.5270014405250549,0.7660583853721619,-0.3680001497268677,-0.12483882904052734,-0.06551200151443481,-0.06611216068267822,0.8269959723547025,-0.46650327613986925,-0.31364728088114224,-0.00882240505946737
1710515809503721000,1.547720947265625,1.1783746480941772,0.21434861421585083,0.3571489453315735,-0.5234960913658142,0.763435959815979,-0.3783087134361267,-0.07792907953262329,-0.03994035720825195,-0.0837576687335968,0.8301322614859853,-0.4620477187845579,-0.3120217227991172,-0.005905772907407497
1710515809513740000,1.557739990234375,1.143441915512085,0.27291446924209595,0.3664684295654297,-0.5198032259941101,0.7608503699302673,-0.3884730935096741,-0.08491790294647217,-0.008271574974060059,-0.05847179889678955,0.8332026350624568,-0.45775437706763883,-0.3102005488223664,-0.003149488148424353
1710515809523760000,1.567760009765625,1.153759479522705,0.34620562195777893,0.3335629403591156,-0.5158790946006775,0.758194625377655,-0.398760586977005,-0.11298149824142456,-0.09104961156845093,-0.02164936065673828,0.8362895137461086,-0.45352984109151984,-0.30810776170118753,-0.0006002802165589209
1710515809533779000,1.577779052734375,1.2141051292419434,0.4143044948577881,0.30268996953964233,-0.5119066834449768,0.7550578117370605,-0.40968233346939087,-0.11471086740493774,-0.07628566026687622,-0.02597111463546753,0.8395466007303023,-0.4490568696519936,-0.3057887514281973,0.0017159861027378359
1710515809543798000,1.587798095703125,1.2784955501556396,0.5042721629142761,0.22807033360004425,-0.508010983467102,0.7512187957763672,-0.4214206039905548,-0.14877313375473022,-0.027814745903015137,-0.04610845446586609,0.8430282764326947,-0.4442138099751846,-0.3032553193500413,0.00370840030992164
1710515809553818000,1.597818115234375,1.213172435760498,0.5963743925094604,0.1818903237581253,-0.5040866732597351,0.74685138463974,-0.43371641635894775,-0.14729589223861694,0.001928091049194336,-0.06359779834747314,0.8466586559589707,-0.4391958508933223,-0.3004143809936792,0.005248481055879538
1710515809563837000,1.6078369140625,1.0804704427719116,0.7187185883522034,0.1522645205259323,-0.4999968707561493,0.7425658702850342,-0.44564467668533325,-0.16961988806724548,0.019229352474212646,-0.07846397161483765,0.8501665116770318,-0.4345256747387287,-0.297262689595246,0.00626971147299747
1710515809573856000,1.61785595703125,0.8364752531051636,0.8214486837387085,0.04165199398994446,-0.4957256615161896,0.7388328909873962,-0.45648884773254395,-0.2091694474220276,-0.02759009599685669,-0.09453627467155457,0.8533481338861415,-0.4306866623475825,-0.2937083149928149,0.0064376638254156566
1710515809583874800,1.627874755859375,0.830024242401123,0.9503172636032104,-0.0648595318198204,-0.49178001284599304,0.7349281907081604,-0.4669400453567505,-0.23810896277427673,-0.13672244548797607,-0.10570678114891052,0.856410001818477,-0.42716128479592125,-0.28993656500476683,0.005652589382744105
1710515809593895000,1.63789501953125,0.846747875213623,1.051466703414917,-0.11171945184469223,-0.48761677742004395,0.7305154800415039,-0.47809740900993347,-0.26793748140335083,-0.17540061473846436,-0.11733081936836243,0.8596683358838353,-0.42342673442406975,-0.28576405199957583,0.004378374020326952
1710515809603914000,1.6479140625,0.900680661201477,1.1360481977462769,-0.2259371131658554,-0.48355787992477417,0.7255229353904724,-0.48968198895454407,-0.2953881025314331,-0.09234404563903809,-0.16249370574951172,0.8630380201214374,-0.4194952957842704,-0.28139421728594655,0.0025625214746460585
1710515809613933000,1.65793310546875,0.9899170398712158,1.2004845142364502,-0.274477481842041,-0.4795956611633301,0.7195459604263306,-0.5022368431091309,-0.327579140663147,-0.050081610679626465,-0.17087393999099731,0.8666709478960167,-0.4150135987763887,-0.2768488751532399,0.0003350256294474471
1710515809623952000,1.667951904296875,1.1936432123184204,1.3484015464782715,-0.38578084111213684,-0.47550517320632935,0.7124045491218567,-0.5161150097846985,-0.33604884147644043,-0.11947840452194214,-0.1589335799217224,0.8706623107675199,-0.40980100201124675,-0.2720397570639206,-0.002190878306175445
1710515809633972000,1.677971923828125,1.2888022661209106,1.4660354852676392,-0.4545353949069977,-0.4710831344127655,0.7039130926132202,-0.5315893888473511,-0.34961095452308655,-0.12092030048370361,-0.1843070387840271,0.8750814951034523,-0.4037909496406471,-0.26675490651607336,-0.005223703797168319
1710515809643991000,1.687990966796875,1.313904881477356,1.5847291946411133,-0.5523136258125305,-0.466318279504776,0.6944800615310669,-0.5479460954666138,-0.37543290853500366,-0.17278188467025757,-0.1972319483757019,0.8797139748343191,-0.39731788443145244,-0.2610851395632703,-0.00875596244097543
1710515809654010000,1.698010009765625,1.2872059345245361,1.6770033836364746,-0.6498274207115173,-0.461417019367218,0.6843850612640381,-0.5645454525947571,-0.36411404609680176,-0.20191723108291626,-0.17196553945541382,0.8843668058759103,-0.3906764252180985,-0.25514548316556335,-0.01296805759354531
1710515809664029000,1.70802880859375,1.1944462060928345,1.7604058980941772,-0.7373484373092651,-0.4562148451805115,0.674084484577179,-0.5809288024902344,-0.3769914507865906,-0.16569191217422485,-0.1934240460395813,0.8889025964930116,-0.3841501285292312,-0.24892626274232382,-0.017795688073284438
1710515809674049000,1.718049072265625,1.185516357421875,1.8545936346054077,-0.8477652668952942,-0.45093804597854614,0.6635188460350037,-0.5969905853271484,-0.382710725069046,-0.21649718284606934,-0.19552016258239746,0.893280575210916,-0.3777340483195721,-0.24253184850516837,-0.023349836265408815
1710515809684067800,1.72806787109375,1.217657446861267,1.9320658445358276,-0.8585411906242371,-0.4450816214084625,0.6522923707962036,-0.6135284304618835,-0.37915247678756714,-0.2049044966697693,-0.20626509189605713,0.8977222196899163,-0.37100293178641597,-0.23578083061239724,-0.029312770306503103
1710515809694087000,1.7380869140625,1.2823560237884521,2.0113954544067383,-0.906293511390686,-0.43848899006843567,0.6406415104866028,-0.6303222179412842,-0.412570059299469,-0.12709146738052368,-0.22090446949005127,0.9021663103162249,-0.3640464934081251,-0.22871171623474681,-0.03545834476740418
1710515809704105700,1.748105712890625,1.3632431030273438,2.10262393951416,-0.925038754940033,-0.43119949102401733,0.6280943155288696,-0.6477381587028503,-0.46510186791419983,-0.03863179683685303,-0.23220551013946533,0.9067077288126475,-0.3565727813584044,-0.22132953434863445,-0.0418387256760087
1710515809714125800,1.758125732421875,1.3675886392593384,2.1897213459014893,-0.9242019653320312,-0.42282038927078247,0.6151576042175293,-0.6654353737831116,-0.4828345775604248,-0.004515886306762695,-0.2460024356842041,0.9112515703131852,-0.3488637033634502,-0.21348638744741122,-0.04835812602741718
1710515809724145000,1.768144775390625,1.2931970357894897,2.3119678497314453,-0.9430587291717529,-0.413271963596344,0.6021677851676941,-0.6830815672874451,-0.49421408772468567,-0.00017780065536499023,-0.2182396650314331,0.9157012697236455,-0.34113768917935133,-0.20514459010135644,-0.05506523460096596
1710515809734164000,1.7781640625,1.2401173114776611,2.4451744556427,-1.076132893562317,-0.40280881524086,0.5893356800079346,-0.7003060579299927,-0.5135883092880249,0.050190865993499756,-0.2181965708732605,0.9199185840782508,-0.33364918898450724,-0.19627832473903867,-0.062473809138383116
1710515809744183000,1.78818310546875,1.2670769691467285,2.4916086196899414,-1.085116982460022,-0.391643226146698,0.5760681629180908,-0.7174685001373291,-0.5270275473594666,0.040677011013031006,-0.23944050073623657,0.9240051925302211,-0.32596874414174865,-0.187109907448438,-0.07034751472229916
1710515809754203100,1.798203125,1.3420978784561157,2.606372594833374,-1.1457380056381226,-0.379436194896698,0.5622867345809937,-0.734752893447876,-0.5341686010360718,-0.0732729434967041,-0.2361026406288147,0.9280245646769312,-0.3179499194738282,-0.17757084013172458,-0.07840228997896909
1710515809764222000,1.808221923828125,1.3670082092285156,2.677884101867676,-1.294909119606018,-0.3664805591106415,0.547600507736206,-0.7522138357162476,-0.5600332021713257,0.003211379051208496,-0.18168485164642334,0.9319493172867401,-0.30945848963436445,-0.1677156004012876,-0.08704833732436752
1710515809774241000,1.818240966796875,1.3286343812942505,2.746107339859009,-1.4151862859725952,-0.3531334102153778,0.5324136018753052,-0.7693066000938416,-0.6287697553634644,0.16395199298858643,-0.16657578945159912,0.9356020362384214,-0.30078807448818196,-0.15771248521594203,-0.09644859982057596
1710515809784260900,1.8282607421875,1.310964822769165,2.7917940616607666,-1.4906890392303467,-0.3392259478569031,0.5171176195144653,-0.7858213782310486,-0.6276777982711792,0.114749014377594,-0.17766422033309937,0.9389305931119605,-0.2920952337017732,-0.1475455831307617,-0.10639652705657153
1710515809794280000,1.838280029296875,1.3900572061538696,2.8282368183135986,-1.5668163299560547,-0.32465997338294983,0.5013010501861572,-0.8020556569099426,-0.6262068748474121,0.0244101881980896,-0.09807544946670532,0.9420266981374936,-0.2830764182169257,-0.13725858299262195,-0.11667780508215086
1710515809804298800,1.848298828125,1.3802735805511475,2.8571712970733643,-1.649455189704895,-0.309520959854126,0.484919935464859,-0.8179544806480408,-0.6647833585739136,0.19844508171081543,-0.03379106521606445,0.9448619845826114,-0.27371093860210266,-0.12690585347330427,-0.12733129001608506
1710515809814317800,1.85831787109375,1.4106978178024292,2.861569881439209,-1.7415438890457153,-0.2939583361148834,0.4682847559452057,-0.8332454562187195,-0.6752495765686035,0.24802401661872864,-0.014837920665740967,0.9473516967130845,-0.2641800048938571,-0.11655986513930289,-0.1383752602670015
1710515809824338000,1.868337890625,1.4303849935531616,2.8580434322357178,-1.8362184762954712,-0.2780906558036804,0.4512091279029846,-0.8479834794998169,-0.6648568511009216,0.2024317979812622,0.0019752979278564453,0.9495023485318298,-0.2543742234533111,-0.10631095471739348,-0.14979041664768314
1710515809834357000,1.87835693359375,1.440743327140808,2.889256477355957,-1.940832495689392,-0.26187586784362793,0.43378573656082153,-0.8621200919151306,-0.6687730550765991,0.2461613118648529,0.05319070816040039,0.9512778308036859,-0.2443359603751134,-0.09612442629152163,-0.16164998188168975
1710515809844376000,1.8883759765625,1.4064044952392578,2.9022421836853027,-2.0629847049713135,-0.24514780938625336,0.4162352383136749,-0.8755859732627869,-0.6793060302734375,0.2714785635471344,0.10347610712051392,0.9526377784974706,-0.23415399433062178,-0.08590057440242252,-0.1739956301975163
1710515809854395000,1.898394775390625,1.350822925567627,2.883573293685913,-2.2308075428009033,-0.22834670543670654,0.3990042507648468,-0.8880616426467896,-0.687424898147583,0.24078169465065002,0.11766070127487183,0.9534444379918412,-0.22410953767168326,-0.07578983662862855,-0.1870154926516327
1710515809864415000,1.9084150390625,1.3226948976516724,2.86918568611145,-2.3498895168304443,-0.21152931451797485,0.38189801573753357,-0.8996717929840088,-0.6920352578163147,0.27416902780532837,0.12789756059646606,0.9537186525271769,-0.21407099576913763,-0.06586137799567372,-0.20064106869757467
1710515809874434000,1.91843408203125,1.21781587600708,2.83172869682312,-2.4997379779815674,-0.19476403295993805,0.3654572367668152,-0.9102241396903992,-0.6925194263458252,0.21871036291122437,0.14206629991531372,0.9533975537214179,-0.20430279558385617,-0.05610966889781815,-0.21481445897442208
1710515809884453000,1.928453125,1.0773810148239136,2.8003506660461426,-2.6407132148742676,-0.17814721167087555,0.3500868082046509,-0.9196209907531738,-0.6911461353302002,0.25379517674446106,0.20500624179840088,0.9524136094981368,-0.1950025977678018,-0.04651322183909451,-0.22960608651350192
1710515809894472000,1.938471923828125,0.9452307820320129,2.765909433364868,-2.7735934257507324,-0.16170212626457214,0.33613622188568115,-0.9278280735015869,-0.6658126711845398,0.3124692738056183,0.2348502278327942,0.9507412846236615,-0.18631796546310253,-0.03703498077207895,-0.24495963135643073
1710515809904491800,1.94849169921875,0.8735653758049011,2.76116681098938,-2.8845455646514893,-0.1452748328447342,0.323337584733963,-0.9350658059120178,-0.636661946773529,0.2749597132205963,0.2351452112197876,0.9484305492140122,-0.17805581147250904,-0.027626543412978547,-0.26079215590754035
1710515809914510800,1.9585107421875,0.8249954581260681,2.756368398666382,-2.9965014457702637,-0.12865903973579407,0.3112945854663849,-0.9415639042854309,-0.6334565877914429,0.31987011432647705,0.24234521389007568,0.9455266128020045,-0.16995751535074696,-0.018234637576012087,-0.2770585512386588
1710515809924530000,1.968530029296875,0.753128170967102,2.733268976211548,-3.08197021484375,-0.11199919879436493,0.3001687824726105,-0.9472881555557251,-0.6294865608215332,0.3218253552913666,0.2542187571525574,0.9420245221182492,-0.1621000995319235,-0.008914753535231006,-0.29365610711981754
1710515809934550000,1.978550048828125,0.7038453221321106,2.7069051265716553,-3.1756527423858643,-0.09535963833332062,0.2899560034275055,-0.9522773027420044,-0.6078875660896301,0.30033037066459656,0.26567763090133667,0.9379270302407757,-0.1544708779492164,0.0003078197886482409,-0.31053446405394053
1710515809944568800,1.98856884765625,0.6373836994171143,2.6659603118896484,-3.279813528060913,-0.07888849824666977,0.2807561755180359,-0.9565315246582031,-0.5763850808143616,0.31798356771469116,0.2860756516456604,0.9332064189323073,-0.14712552231911274,0.009397447095890805,-0.32770660579638716
1710515809954588000,1.998587890625,0.5455414056777954,2.614243507385254,-3.368959903717041,-0.06275264173746109,0.27272695302963257,-0.9600427746772766,-0.555762529373169,0.324074923992157,0.3497980833053589,0.9278459487823767,-0.14015367004371845,0.018318409369866194,-0.3451424536308135
1710515809964607000,2.00860693359375,0.39974960684776306,2.5650618076324463,-3.454030752182007,-0.04702926054596901,0.2662242650985718,-0.9627631306648254,-0.5231460332870483,0.3351094722747803,0.4058631658554077,0.9218298335928244,-0.1337272138793127,0.02711922987714303,-0.36278288961456945
1710515809974627000,2.018626953125,0.26447540521621704,2.5234363079071045,-3.537522077560425,-0.03170210123062134,0.2616424262523651,-0.9646440744400024,-0.4955349862575531,0.30952465534210205,0.4584032893180847,0.9151349798752245,-0.12801488562558264,0.035918588741358,-0.38059174007523416
1710515809984646100,2.028646240234375,0.0732354074716568,2.4590606689453125,-3.6143016815185547,-0.016928449273109436,0.25914886593818665,-0.9656890034675598,-0.4607481062412262,0.2898777425289154,0.5123504400253296,0.9077589227572787,-0.12310746187212865,0.04472177172375192,-0.3985202143206812
1710515809994665000,2.0386650390625,-0.12788519263267517,2.409766674041748,-3.691556692123413,-0.0028708861209452152,0.25906243920326233,-0.9658563137054443,-0.42259007692337036,0.28212109208106995,0.5516564846038818,0.8996838186470034,-0.11916949220149153,0.0535768428754644,-0.4165299421044569
1710515810004684000,2.04868408203125,-0.24984677135944366,2.354266405105591,-3.7384703159332275,0.010493339970707893,0.26106879115104675,-0.9652631878852844,-0.3927261531352997,0.2849976122379303,0.5778272747993469,0.8909529992665173,-0.11603538779544023,0.06248361096735026,-0.4345509707868203
1710515810014703900,2.058703857421875,-0.37197643518447876,2.294327735900879,-3.764630079269409,0.02307928167283535,0.2646943926811218,-0.964056134223938,-0.36776021122932434,0.28793326020240784,0.609258770942688,0.8816619562013351,-0.1135043802245023,0.07133502241385642,-0.4524383546595685
1710515810024723000,2.068722900390625,-0.5213072896003723,2.2392640113830566,-3.8071625232696533,0.03480779752135277,0.2700919210910797,-0.962205171585083,-0.335467129945755,0.28592315316200256,0.624467134475708,0.8718023478664345,-0.11166060814192465,0.08018307937251422,-0.4701738453300489
1710515810034741800,2.07874169921875,-0.6739852428436279,2.1918654441833496,-3.83682918548584,0.04565023258328438,0.27735355496406555,-0.959682822227478,-0.2931632101535797,0.2555291950702667,0.6533931493759155,0.861358560952389,-0.1105458424531579,0.08909666997005801,-0.4877529651543174
1710515810044760800,2.0887607421875,-0.8181357979774475,2.14548659324646,-3.885448932647705,0.055534619837999344,0.2864859700202942,-0.9564735889434814,-0.2620624899864197,0.2543008327484131,0.6956703662872314,0.850325549076664,-0.11017403078475202,0.09810652085041448,-0.5051569029213859
1710515810054781000,2.098781005859375,-0.9248313307762146,2.0908360481262207,-3.937034845352173,0.06436534225940704,0.2972390949726105,-0.9526311159133911,-0.22906886041164398,0.2342551350593567,0.7143498659133911,0.8386850229542865,-0.11044796151886181,0.10717129506316474,-0.5224205990912475
1710515810064800000,2.108800048828125,-0.9688286781311035,2.0112369060516357,-3.981492519378662,0.07175827771425247,0.30888330936431885,-0.9483891129493713,-0.1986352503299713,0.21646159887313843,0.7267704606056213,0.8264817671528601,-0.11115264290772098,0.11597645803699455,-0.539557934536855
1710515810074819000,2.118819091796875,-1.089406967163086,1.9356218576431274,-4.037099838256836,0.07776270061731339,0.321580708026886,-0.9436836838722229,-0.16295267641544342,0.2328169345855713,0.7339363098144531,0.8137159684551736,-0.11236356863880335,0.12462985661307342,-0.5565144845630013
1710515810084838000,2.128837890625,-1.3064920902252197,1.8606436252593994,-4.100798606872559,0.08223482966423035,0.3361266851425171,-0.9382197856903076,-0.11511766910552979,0.21866768598556519,0.7265803813934326,0.8002909952245844,-0.1144637471981288,0.13337229843225795,-0.5732752537048015
1710515810094858000,2.13885791015625,-1.5213522911071777,1.807831048965454,-4.16493558883667,0.08511721342802048,0.3528166115283966,-0.9318130612373352,-0.07649613916873932,0.18858051300048828,0.7320754528045654,0.7861667252197166,-0.11759502551234298,0.14235481196461755,-0.5897869215968575
1710515810104877000,2.148876953125,-1.7232412099838257,1.7729572057724,-4.2256646156311035,0.08651119470596313,0.3715009093284607,-0.9243932366371155,-0.04097911715507507,0.1691180169582367,0.717560350894928,0.7713145378095287,-0.12165693429856393,0.15166727390821938,-0.6060285574297577
1710515810114896100,2.158896240234375,-1.9406638145446777,1.7529267072677612,-4.245151042938232,0.08656634390354156,0.3921121060848236,-0.9158353805541992,-0.013522662222385406,0.16436070203781128,0.7192868590354919,0.7557526639266,-0.12657892744035076,0.16143140621348792,-0.6218969001651803
1710515810124915000,2.1689150390625,-2.0727031230926514,1.6853978633880615,-4.254354000091553,0.0851372629404068,0.4141274094581604,-0.9062285423278809,0.009299226105213165,0.17106246948242188,0.7306914329528809,0.7396045529906186,-0.13221706519424153,0.17147704240040462,-0.6372594054069778
1710515810134934800,2.178934814453125,-2.1498000621795654,1.5576112270355225,-4.223278999328613,0.08171118050813675,0.4367786943912506,-0.8958503007888794,0.05519053339958191,0.1674083173274994,0.7150488495826721,0.7230452712055291,-0.1384778720489181,0.18138010675304436,-0.6520206845655346
1710515810144953900,2.188953857421875,-2.191012382507324,1.4142699241638184,-4.192061424255371,0.07607180625200272,0.4594760835170746,-0.884926438331604,0.10797955840826035,0.2245602011680603,0.690559983253479,0.7062198431774073,-0.14526725277072378,0.19087743935785925,-0.66612076538814
1710515810154973000,2.198972900390625,-2.1590588092803955,1.2669563293457031,-4.143316745758057,0.06821173429489136,0.4816990792751312,-0.8736779689788818,0.1806894838809967,0.26231950521469116,0.6758935451507568,0.6892301453392492,-0.15245283278175167,0.19979774572317036,-0.6795594405167921
1710515810164993000,2.208992919921875,-2.168614625930786,1.1347020864486694,-4.106515884399414,0.05829184129834175,0.5030876994132996,-0.862267255783081,0.2541012167930603,0.23072272539138794,0.6666038036346436,0.6721426487064777,-0.15990610313309656,0.20807786679003376,-0.6923568614807308
1710515810175011800,2.21901171875,-2.206865072250366,1.0225188732147217,-4.076226234436035,0.046465322375297546,0.5240188241004944,-0.8504382967948914,0.3160070776939392,0.20881503820419312,0.6686145663261414,0.6548984479089036,-0.16776784695459673,0.2159509433142031,-0.7045049355778304
1710515810185031000,2.229031005859375,-2.2088208198547363,1.0386751890182495,-4.022774696350098,0.03345322981476784,0.5444837808609009,-0.8381040692329407,0.375192254781723,0.20038926601409912,0.6730954647064209,0.63743089384682,-0.1757878400133467,0.22371099966510619,-0.7160545738290759
1710515810195050000,2.239050048828125,-2.041253089904785,1.081899881362915,-3.97904634475708,0.02006123587489128,0.56313556432724,-0.8261210322380066,0.4157143831253052,0.1791587471961975,0.6955972909927368,0.6198597228612919,-0.1831621482400843,0.23106517930782766,-0.7272101870851762
1710515810205070000,2.249070068359375,-1.980428695678711,1.0722570419311523,-3.956174612045288,0.006273219361901283,0.5801834464073181,-0.8144617080688477,0.4087962210178375,0.13897860050201416,0.7533960342407227,0.6021386947037614,-0.18998534962864563,0.23806450896066514,-0.7380108161491741
1710515810215089200,2.259089111328125,-2.075817584991455,0.9659742712974548,-3.920520782470703,-0.008666026405990124,0.5965129137039185,-0.8025566935539246,0.41906628012657166,0.19285470247268677,0.8050743937492371,0.5842883008714385,-0.19695352854484882,0.24480801057721716,-0.7482550378295215
1710515810225107700,2.269107666015625,-2.143179416656494,0.8200736045837402,-3.9041457176208496,-0.025260282680392265,0.6126648783683777,-0.7899391055107117,0.44998854398727417,0.3438323736190796,0.7871925234794617,0.5662907346144088,-0.20452593750235776,0.2513952800980617,-0.7578156635428076
1710515810235126800,2.279126708984375,-2.282707929611206,0.6895608901977539,-3.879819631576538,-0.04353978484869003,0.6286344528198242,-0.7764812707901001,0.4695650339126587,0.44949060678482056,0.8282238245010376,0.548167738783921,-0.2127671118576664,0.25785562064728973,-0.7666505549463182
1710515810245146600,2.289146728515625,-2.557565689086914,0.6189714670181274,-3.8301165103912354,-0.06318313628435135,0.6451748013496399,-0.7614181041717529,0.4707452654838562,0.5026828646659851,0.9517867565155029,0.5297635626876468,-0.22182913736674617,0.26473152805391825,-0.7746353208575968
1710515810255165700,2.299165771484375,-2.593597412109375,0.5779058337211609,-3.7248754501342773,-0.08342652767896652,0.6619358062744141,-0.7449034452438354,0.4705266058444977,0.5338497161865234,1.0826414823532104,0.5113030193239778,-0.23133794577580888,0.27208645647580776,-0.7816784702186802
1710515810265184800,2.309184814453125,-2.6951053142547607,0.5089285373687744,-3.6014182567596436,-0.10395781695842743,0.6780157089233398,-0.7276589870452881,0.4361110031604767,0.5411920547485352,1.2379586696624756,0.4929897505725452,-0.24088278297277868,0.27954602323470185,-0.7879028564502508
1710515810275203600,2.31920361328125,-2.686959981918335,0.2914830446243286,-3.4544198513031006,-0.12530480325222015,0.6933279633522034,-0.7096443176269531,0.4382319152355194,0.5069894194602966,1.3548927307128906,0.47512585679042457,-0.25081402244004064,0.28682774961347185,-0.7931441739467728
1710515810285223700,2.3292236328125,-2.802809000015259,-0.012681068852543831,-3.3396427631378174,-0.14805518090724945,0.7078834176063538,-0.69063800573349,0.4173269271850586,0.5805687308311462,1.4432471990585327,0.4579046791769062,-0.26154818546465103,0.29372360306167306,-0.7972718440515723
1710515810295242500,2.339242431640625,-3.067331075668335,-0.31355568766593933,-3.288344621658325,-0.17295722663402557,0.7225000262260437,-0.6693874597549438,0.4121081233024597,0.6813543438911438,1.5408626794815063,0.4409628219920891,-0.27374587409956413,0.30061514874842077,-0.800153503734773
1710515810305261600,2.349261474609375,-3.5951991081237793,-0.5589582920074463,-3.3667523860931396,-0.2001105099916458,0.7381361722946167,-0.6442909836769104,0.40044301748275757,0.6905595064163208,1.6425056457519531,0.42368161679764493,-0.28775494446554795,0.30830441360770106,-0.8016479765946796
1710515810315281700,2.35928173828125,-4.157225131988525,-0.6859272122383118,-3.45408296585083,-0.22959786653518677,0.755399227142334,-0.6137238144874573,0.3766924738883972,0.6000847816467285,1.7494659423828125,0.4051729630140208,-0.30372741168129663,0.3176283272080794,-0.8016837867104529
1710515810325300700,2.36930078125,-4.626779079437256,-0.7959766387939453,-3.595442056655884,-0.2609831690788269,0.7729500532150269,-0.5783045291900635,0.31895115971565247,0.48916542530059814,1.8384668827056885,0.3853741059907624,-0.3210822641512582,0.3282589069313752,-0.8003994488763806
1710515810335319600,2.379319580078125,-4.374880313873291,-0.8905998468399048,-3.677299737930298,-0.29421374201774597,0.7883405685424805,-0.5403309464454651,0.2510007321834564,0.34158802032470703,1.9049701690673828,0.3646764066620303,-0.3391091927508099,0.33887974526898124,-0.7982335055634054
1710515810345338600,2.389338623046875,-4.251850128173828,-1.0561500787734985,-3.7608790397644043,-0.32866501808166504,0.7992540001869202,-0.5031624436378479,0.1420499086380005,0.30221688747406006,1.9297523498535156,0.34407679386827306,-0.3569372105240709,0.3478715548553724,-0.7957338840421098
1710515810355358700,2.399358642578125,-4.005005836486816,-1.2239757776260376,-4.10336971282959,-0.365890234708786,0.8056652545928955,-0.46586254239082336,0.03410303592681885,0.284224271774292,1.933910608291626,0.3228572660107934,-0.3753627254379299,0.35520634877968554,-0.792902577959404
1710515810365377800,2.409377685546875,-3.714160203933716,-1.3222923278808594,-4.365021228790283,-0.40584444999694824,0.8065335750579834,-0.42987677454948425,-0.06221902370452881,0.1744692325592041,1.8697571754455566,0.30092480702636176,-0.39401688318457645,0.36029474737381806,-0.7901789457662969
1710515810375396600,2.419396728515625,-3.8949990272521973,-1.3466216325759888,-4.62642240524292,-0.4476149082183838,0.8029605150222778,-0.3935674726963043,-0.21627986431121826,-0.005292117595672607,1.832684874534607,0.2779529272474299,-0.41297085479144724,0.3642407697634718,-0.7870997064532759
1710515810385415700,2.429415771484375,-4.035566806793213,-1.3290338516235352,-4.959403991699219,-0.4910149872303009,0.7952917218208313,-0.35554972290992737,-0.3281380236148834,-0.0542028546333313,1.766316294670105,0.25314224750907205,-0.4322793631283037,0.3679126136279409,-0.7833862603325612
1710515810395435500,2.439435546875,-3.715054512023926,-1.4416871070861816,-5.176100254058838,-0.5358242988586426,0.7824274897575378,-0.317331999540329,-0.5006137490272522,-0.22542071342468262,1.7306621074676514,0.22711938443797186,-0.45181830485538227,0.37039738845163567,-0.7791551978361282
1710515810405454600,2.44945458984375,-2.761817216873169,-1.580696702003479,-5.21757698059082,-0.5806373357772827,0.7631238698959351,-0.2837294042110443,-0.7124841213226318,-0.22615182399749756,1.6479109525680542,0.20217727166028435,-0.470828627452659,0.3693991066938933,-0.7752348986707145
1710515810415473700,2.4594736328125,-1.7905999422073364,-1.7054322957992554,-5.2920427322387695,-0.624634325504303,0.737596869468689,-0.25648233294487,-0.8336331248283386,-0.10614234209060669,1.5108921527862549,0.17935236923936917,-0.48909852902681455,0.3640624415192191,-0.7720583643891734
1710515810425492500,2.469492431640625,-0.42629876732826233,-1.6179918050765991,-5.356645107269287,-0.6673168540000916,0.7058370113372803,-0.23766055703163147,-0.9244191646575928,-0.19863486289978027,1.3879139423370361,0.159028737804331,-0.5060834906413902,0.3536229944564075,-0.7704156429746234
1710515810435512600,2.4795126953125,0.3924272656440735,-1.7147921323776245,-5.320558547973633,-0.7078315615653992,0.6691318154335022,-0.2263563871383667,-1.1384210586547852,-0.3365970849990845,1.3140791654586792,0.14132517476837422,-0.5216556774488215,0.33866968709717,-0.7701983511186863
1710515810445531600,2.48953173828125,1.2845606803894043,-2.047814130783081,-5.3744096755981445,-0.746850311756134,0.6282692551612854,-0.21792791783809662,-1.4758822917938232,-0.4374734163284302,1.3569355010986328,0.12589964534869932,-0.5372049776806403,0.3200731985214106,-0.7701385251481867
1710515810455550700,2.49955078125,2.498933792114258,-2.54120135307312,-5.2499003410339355,-0.7840707302093506,0.5833882689476013,-0.21187551319599152,-1.7710899114608765,-0.45436006784439087,1.3486400842666626,0.11407181453264549,-0.5531059209823957,0.29687721524379296,-0.770016487431809
1710515810465569800,2.50956982421875,3.6634483337402344,-3.2988622188568115,-4.92774772644043,-0.8187885880470276,0.5359554290771484,-0.20576021075248718,-1.9419995546340942,-0.4488888382911682,1.413752794265747,0.10725733480670004,-0.5698823414882102,0.2689870086212526,-0.7690098438391708
1710515810475589600,2.519589599609375,4.294834136962891,-4.080196380615234,-4.429967880249023,-0.8502557277679443,0.48872750997543335,-0.19547614455223083,-2.0448708534240723,-0.480960875749588,1.4588733911514282,0.10548274538393411,-0.5878560351019552,0.2380907594263715,-0.7659057865117995
1710515810485608700,2.529608642578125,4.854308605194092,-5.174909591674805,-4.057372570037842,-0.8784921765327454,0.44415852427482605,-0.17599783837795258,-2.1413750648498535,-0.6319179534912109,1.5224028825759888,0.10824885196859352,-0.6079694785107082,0.20584992603800098,-0.7591320152312374
1710515810495627500,2.53962744140625,5.514288902282715,-6.1817193031311035,-3.5793378353118896,-0.9039308428764343,0.4017521142959595,-0.14664514362812042,-2.2764434814453125,-0.889133095741272,1.6467825174331665,0.11523380075474116,-0.6303271324032598,0.17136259201905585,-0.7483608960657021
1710515810505647600,2.549647705078125,6.289002418518066,-7.1603312492370605,-3.059438467025757,-0.9251856803894043,0.3638056516647339,-0.10806185007095337,-2.4572150707244873,-1.146413803100586,1.5757437944412231,0.12701417829029352,-0.6540734515347713,0.13474789208186475,-0.7334157094333295
1710515810515666700,2.559666748046875,7.237823963165283,-8.090178489685059,-2.6962528228759766,-0.9416220188140869,0.33127978444099426,-0.06001700088381767,-2.7509899139404297,-1.312404751777649,1.5205121040344238,0.1435414977274477,-0.6788684250956346,0.09554663930511145,-0.7137258078244186
1710515810525685500,2.569685546875,8.233824729919434,-8.883469581604004,-2.2747983932495117,-0.9522777199745178,0.3052097260951996,-0.0038263434544205666,-3.021569013595581,-1.351810097694397,1.4020655155181885,0.1647406678224113,-0.7037432760608175,0.05321869645821143,-0.689038391817046
1710515810535704600,2.57970458984375,9.387760162353516,-9.340285301208496,-1.9331724643707275,-0.956057608127594,0.287487268447876,0.057492054998874664,-3.2169313430786133,-1.5735286474227905,1.1146119832992554,0.19060559235445704,-0.7271072666619275,0.007813522109561294,-0.6594874171426033
1710515810545724700,2.589724609375,10.83737850189209,-9.63359546661377,-1.5557441711425781,-0.952538251876831,0.27981406450271606,0.11989732086658478,-3.4905314445495605,-1.8184798955917358,0.8339602947235107,0.22140116953091055,-0.7471834533419716,-0.04081109819107168,-0.6253263463271123
1710515810555743700,2.59974365234375,12.679484367370605,-9.814724922180176,-0.952835738658905,-0.9414602518081665,0.28550219535827637,0.17928068339824677,-3.6707987785339355,-1.8286389112472534,0.6599223613739014,0.2587991448548828,-0.7622247442802633,-0.09302568800003488,-0.5859887899988983
1710515810565762600,2.609762451171875,14.345537185668945,-9.972219467163086,-0.15357662737369537,-0.9227455854415894,0.30809661746025085,0.23155438899993896,-3.71366810798645,-1.6994084119796753,0.6749857664108276,0.3031860093586181,-0.7707659448920413,-0.14729918594528738,-0.5406488752154132
1710515810575781600,2.61978173828125,15.648323059082031,-10.280095100402832,0.8140432834625244,-0.8958852291107178,0.3492567539215088,0.2746082544326782,-3.7553601264953613,-1.4515669345855713,0.9978071451187134,0.35318974741047426,-0.7725072028820158,-0.20133740347173412,-0.48780427276841637
1710515810585801700,2.6298017578125,16.819856643676758,-10.388736724853516,1.9746716022491455,-0.8604482412338257,0.4088190793991089,0.3041323125362396,-3.886866569519043,-1.0937861204147339,1.4753174781799316,0.40733788708214314,-0.7668367205915323,-0.25303674415498917,-0.4266262411795582
1710515810595820500,2.639820556640625,17.288793563842773,-10.074110984802246,3.1774191856384277,-0.8169122934341431,0.48376622796058655,0.31404614448547363,-4.051175594329834,-0.6176927089691162,1.9230605363845825,0.46336391159810486,-0.7533104271004865,-0.2992431605848163,-0.35814938069379676
1710515810605839600,2.649839599609375,17.03566551208496,-9.395415306091309,4.555484771728516,-0.7663207650184631,0.5675100684165955,0.30114054679870605,-4.423681735992432,-0.2798970937728882,2.483955144882202,0.5179239433373192,-0.7330143258010903,-0.33654163242041873,-0.2849295120570561
1710515810615858400,2.6598583984375,16.62355613708496,-8.626814842224121,5.937210559844971,-0.7084736824035645,0.6543229818344116,0.2644370496273041,-4.893622875213623,-0.22030192613601685,2.947477340698242,0.5694897888119164,-0.7073916458244675,-0.3630641654711884,-0.2084778660253232
1710515810625878500,2.66987841796875,15.220616340637207,-8.036974906921387,7.5238847732543945,-0.6415045857429504,0.7379227876663208,0.2096242904663086,-5.272314071655273,-0.25392913818359375,3.1851210594177246,0.6150682720198718,-0.6796977422177334,-0.37791946879506844,-0.12991955503489744
1710515810635897600,2.679897705078125,13.735623359680176,-7.69219970703125,8.8231782913208,-0.563560962677002,0.8133395314216614,0.14449316263198853,-5.6811747550964355,-0.0567781925201416,3.1268999576568604,0.6521101077311895,-0.6529448075363882,-0.3819812260900684,-0.050060388245784765
1710515810645916700,2.689916748046875,12.625494956970215,-7.52528190612793,9.721792221069336,-0.4764649271965027,0.8761922121047974,0.07258594036102295,-5.788259983062744,-0.4019031524658203,3.0697484016418457,0.6802784034256967,-0.6270510847748961,-0.378285484435141,0.03047117352559986
1710515810655936800,2.699936767578125,12.011500358581543,-7.221711158752441,10.497620582580566,-0.3824213147163391,0.9239670038223267,-0.0062553961761295795,-5.648416519165039,-0.2685713768005371,2.9559779167175293,0.7005377793720179,-0.6009732661195558,-0.36837947178754415,0.11124135523039466
1710515810665955600,2.70995556640625,11.666996955871582,-6.674838066101074,11.071085929870605,-0.2837909758090973,0.954221785068512,-0.09446478635072708,-5.694068431854248,0.1772937774658203,2.891233205795288,0.7145162851837794,-0.5732858305130402,-0.35229385931019647,0.1915697345463691
1710515810675974700,2.719974609375,12.341890335083008,-5.856478214263916,11.1657133102417,-0.18578501045703888,0.9630724191665649,-0.19487342238426208,-5.701131820678711,0.06184530258178711,3.087909698486328,0.7243323113051952,-0.5418681353126452,-0.33006394750289,0.2697768443595583
1710515810685993700,2.72999365234375,13.328248023986816,-4.65443229675293,11.024358749389648,-0.09252586960792542,0.9460909962654114,-0.3104044795036316,-5.49019193649292,0.25611865520477295,3.364436149597168,0.732490605266982,-0.5045237832998544,-0.3004222166955756,0.3444704173028909
1710515810696013600,2.740013671875,14.207344055175781,-3.0386910438537598,10.75919246673584,-0.00580043438822031,0.8998819589614868,-0.4360952079296112,-5.295194149017334,0.65024334192276,3.65373158454895,0.7396567354522826,-0.4618114962151284,-0.26207352188635574,0.41346789788515526
1710515810706032600,2.75003271484375,14.678804397583008,-1.244491457939148,10.55008316040039,0.0757976621389389,0.8234857320785522,-0.5622508525848389,-5.211463451385498,0.6702736020088196,3.887446403503418,0.7452249025057756,-0.4158724423816834,-0.21430043745344826,0.4751477488508873
1710515810716051500,2.760051513671875,14.392919540405273,0.370388925075531,10.516472816467285,0.1549081653356552,0.7207241654396057,-0.6756924390792847,-5.045823097229004,0.48339277505874634,3.9574155807495117,0.7469943047538897,-0.37018955460450986,-0.15847232078506243,0.5290046694275432
1710515810726070500,2.770070556640625,12.825000762939453,1.6188161373138428,10.530984878540039,0.23220987617969513,0.6013475060462952,-0.7644997835159302,-4.711976528167725,0.36708223819732666,3.8130991458892822,0.7424149925388135,-0.32873891673458594,-0.09839125430705865,0.5753869491638081
1710515810736090600,2.780090576171875,11.151312828063965,2.4592199325561523,10.475992202758789,0.3056275546550751,0.47733479738235474,-0.8238587975502014,-4.247964382171631,-0.13207405805587769,3.3901126384735107,0.7304684502497772,-0.29424906776836546,-0.03857554649157382,0.6150979327924424
1710515810746109700,2.790109619140625,9.246394157409668,2.7152771949768066,10.312417030334473,0.37118497490882874,0.3558029532432556,-0.8576864004135132,-3.7351832389831543,-0.7785323262214661,2.9299826622009277,0.7119850543735841,-0.26615421139988726,0.01785277380607026,0.6495541846864213
1710515810756128500,2.80012841796875,7.399988651275635,2.530963897705078,10.34874439239502,0.4248882532119751,0.2427450716495514,-0.8720921874046326,-3.155585765838623,-0.8471761345863342,2.5421972274780273,0.6875880198617135,-0.24363325451881368,0.06779923733830115,0.6806385453380922
1710515810766147600,2.810147705078125,6.4071364402771,2.394655466079712,10.276937484741211,0.46602651476860046,0.13615776598453522,-0.8742313385009766,-2.7211990356445312,-0.27148789167404175,2.019479751586914,0.6585693994767036,-0.2242620644647151,0.11220901898864882,0.7095084592759328
1710515810776167700,2.820167724609375,5.389195442199707,2.4187676906585693,9.700396537780762,0.4954942762851715,0.03660797327756882,-0.8678394556045532,-2.5274155139923096,0.06170443445444107,1.6758229732513428,0.6270372224333166,-0.2073613746320411,0.15192605871632056,0.7353532042704279
1710515810786186800,2.830186767578125,5.372188568115234,2.6134183406829834,8.942085266113281,0.5161188244819641,-0.056957341730594635,-0.8546211123466492,-2.4886984825134277,0.2577630281448364,1.526313066482544,0.5954773871623339,-0.19231529978870066,0.18895570218476698,0.756780984925752
1710515810796205600,2.84020556640625,5.437572956085205,2.845668077468872,8.481025695800781,0.5304113626480103,-0.1481941044330597,-0.8346869945526123,-2.490967273712158,0.5415503978729248,1.6310433149337769,0.5642711085760646,-0.1781615579991934,0.22564345934054633,0.7739133048979331
1710515810806225700,2.8502255859375,5.557450294494629,3.0281121730804443,8.095385551452637,0.5385462641716003,-0.23811893165111542,-0.8082495331764221,-2.3866753578186035,0.7361810207366943,1.5688087940216064,0.5330073510294664,-0.16432587598355602,0.26243519320160374,0.7874186522266274
1710515810816244500,2.860244384765625,4.87331485748291,3.2322781085968018,7.673581600189209,0.541476309299469,-0.32275137305259705,-0.7762957215309143,-2.2367124557495117,0.6757328510284424,1.3372700214385986,0.5013351804725937,-0.1521671421555584,0.2978209393196457,0.7980044218912803
1710515810826263600,2.870263671875,4.321201801300049,3.21089506149292,6.995820999145508,0.5394086241722107,-0.3969947099685669,-0.7425857782363892,-2.224055051803589,0.5201025605201721,1.0742661952972412,0.47015728599008805,-0.14249923139010293,0.3292431798596049,0.8063778464872096
1710515810836282600,2.88028271484375,4.255004405975342,3.368954658508301,6.626947402954102,0.5340431332588196,-0.46470868587493896,-0.706288754940033,-2.3223423957824707,0.7163718342781067,0.7349601984024048,0.4400038576585581,-0.13434664081751216,0.358896355797153,0.812121341221702
1710515810846302700,2.890302734375,3.9264726638793945,3.217555046081543,6.430001735687256,0.5244535803794861,-0.5275859236717224,-0.6682825684547424,-2.3932583332061768,0.7930277585983276,0.5270168781280518,0.4098160967281112,-0.1269862064620891,0.38695376338396636,0.8162059586657568
1710515810856321500,2.900321533203125,3.412836790084839,2.8658275604248047,5.903931617736816,0.5097975730895996,-0.583512008190155,-0.6321552395820618,-2.3150954246520996,0.6136938333511353,0.4647359848022461,0.38066431809489976,-0.1197986570374531,0.4117896017255881,0.8192510790642963
1710515810866340600,2.910340576171875,3.412754535675049,2.685396909713745,5.374078750610352,0.4926104247570038,-0.6325337290763855,-0.5976923108100891,-2.024195909500122,0.4575153589248657,0.6585140824317932,0.35369652194604273,-0.11305015221016063,0.4340201807033422,0.8208196892390353
1710515810876359700,2.920359619140625,3.0942676067352295,2.423963785171509,5.064639091491699,0.473288893699646,-0.6770235896110535,-0.5635927319526672,-1.735877275466919,0.2661500573158264,0.9163303375244141,0.3282733845214587,-0.10636981065631955,0.4548506245305632,0.8209951638738616
1710515810886379800,2.9303798828125,2.9692907333374023,2.141613245010376,4.388167381286621,0.45262619853019714,-0.7154635190963745,-0.5322045087814331,-1.5501296520233154,-0.06693106889724731,1.0513086318969727,0.3051002643589465,-0.09987921244243442,0.47320386433345735,0.8203756326257078
1710515810896398600,2.940398681640625,2.6684138774871826,2.097860813140869,3.9326605796813965,0.4332946240901947,-0.7486256957054138,-0.5018121004104614,-1.4503538608551025,-0.17537039518356323,1.099621057510376,0.28434476299808414,-0.09442823362678864,0.49007884193648543,0.8185683131494882
1710515810906417700,2.950417724609375,2.4064061641693115,1.7738227844238281,3.5077922344207764,0.41432610154151917,-0.7767292857170105,-0.4743688404560089,-1.5056498050689697,-0.1184278130531311,1.0338935852050781,0.2653877947622459,-0.08965429058177617,0.5047550708776056,0.8165500871360498
1710515810916436700,2.960436767578125,2.2207493782043457,1.396889567375183,3.058701276779175,0.3957332670688629,-0.8007837533950806,-0.44960057735443115,-1.627758264541626,-0.029080867767333984,0.888001024723053,0.2489583557751629,-0.08472646174869677,0.5177075855699025,0.8141376678938904
1710515810926456600,2.97045654296875,1.980718731880188,1.0804870128631592,2.665473222732544,0.37794554233551025,-0.8211170434951782,-0.4276963770389557,-1.5263218879699707,-0.0864759087562561,0.7804340124130249,0.2349369112020472,-0.07972297354143476,0.5289575248014979,0.8115744031896432
1710515810936475600,2.9804755859375,1.67842698097229,0.667398989200592,2.252166509628296,0.3611631393432617,-0.8378821015357971,-0.4092859625816345,-1.3696774244308472,-0.12325394153594971,0.8296658396720886,0.2232829603363077,-0.0746226498984607,0.538320053499274,0.8091896319706897
1710515810946494500,2.990494384765625,1.4004758596420288,0.29813748598098755,1.8244324922561646,0.345866322517395,-0.8513234853744507,-0.3944934010505676,-1.272730827331543,-0.16625475883483887,0.9366841912269592,0.21431340788959272,-0.06932879404979571,0.5458450500858456,0.8070419106979289
1710515810956514600,3.0005146484375,1.100533366203308,-0.06486602872610092,1.3471519947052002,0.33263012766838074,-0.8615583777427673,-0.3835030198097229,-1.1447638273239136,-0.270277738571167,1.0029795169830322,0.20799456904908198,-0.06408646451971393,0.5514901766848329,0.8052887271277744
1710515810966533600,3.01053369140625,1.0058192014694214,-0.22307297587394714,0.9747815728187561,0.3221205472946167,-0.8693225383758545,-0.37485602498054504,-1.0284497737884521,-0.39044326543807983,1.0819637775421143,0.2041205506220723,-0.059211632702031836,0.5559370186287639,0.8035938484803022
1710515810976552700,3.020552734375,0.6753956079483032,-0.4267251789569855,0.7404324412345886,0.3135140538215637,-0.8752444386482239,-0.36831527948379517,-0.9818183779716492,-0.4503781795501709,1.057158350944519,0.20178076954428673,-0.05472226785061789,0.5593280255697057,0.8021484891110987
1710515810986571500,3.030571533203125,0.21594515442848206,-0.8078343272209167,0.32710930705070496,0.30637669563293457,-0.8786168098449707,-0.36628657579421997,-1.03644859790802,-0.3806758522987366,0.7834467887878418,0.20144692314193488,-0.05020681070749109,0.5606567483329156,0.8015999477245703
1710515810996591600,3.040591552734375,-0.3919607698917389,-0.9704946279525757,-0.08629105240106583,0.30212271213531494,-0.8786051273345947,-0.36983102560043335,-0.9018082618713379,-0.2937277555465698,0.41254061460494995,0.20349563688149033,-0.04640485401360276,0.5594024345992239,0.802187698563313
1710515811006610700,3.050610595703125,-0.547634482383728,-1.0990270376205444,-0.3055134117603302,0.30003124475479126,-0.876124382019043,-0.3773425817489624,-0.761380672454834,-0.3246661424636841,0.5819326639175415,0.20712771701328886,-0.043297008964872395,0.5562859669682104,0.8035978287368292
1710515811016629800,3.060629638671875,-0.6490759253501892,-1.1448274850845337,-0.5458258986473083,0.29936906695365906,-0.8726317286491394,-0.38586536049842834,-0.9187537431716919,-0.26163041591644287,0.5032209753990173,0.2117810324032924,-0.04054922704019409,0.5526509514452222,0.8050350881213701
1710515811026648600,3.070648681640625,-0.8139194846153259,-1.2950711250305176,-0.9133415818214417,0.3009697198867798,-0.867591142654419,-0.39585721492767334,-0.9205374717712402,-0.17136460542678833,0.27424493432044983,0.21793349351360625,-0.038437528412865386,0.5482644835185535,0.8064947063145801
1710515811036668400,3.08066845703125,-1.198470115661621,-1.4411133527755737,-1.2656127214431763,0.3048635721206665,-0.8602935671806335,-0.40859946608543396,-0.785973072052002,-0.23910236358642578,0.19686871767044067,0.22588744365027855,-0.03697128512375311,0.5425250112437137,0.8082542147478372
1710515811046687500,3.0906875,-1.6795709133148193,-1.5910061597824097,-1.7245603799819946,0.31126415729522705,-0.8497117757797241,-0.4255639314651489,-0.648529052734375,-0.40057826042175293,0.18499413132667542,0.2357344836667729,-0.036498565972303776,0.534682978940526,0.8106857195891266
1710515811056706600,3.10070654296875,-2.036100387573242,-1.7019838094711304,-2.251642942428589,0.32085680961608887,-0.8351877331733704,-0.4466681182384491,-0.5775095224380493,-0.3671591877937317,0.2716652750968933,0.24787443652785734,-0.03733892629994587,0.5246634557295585,0.8135677104606769
1710515811066726700,3.1107265625,-2.0477166175842285,-1.7540669441223145,-2.644603967666626,0.3332734704017639,-0.817742109298706,-0.46928346157073975,-0.6514190435409546,-0.11038917303085327,0.4140010476112366,0.2620064558037771,-0.03928834596060112,0.5136289526137711,0.8160849280218527
1710515811076745700,3.120745849609375,-2.1139307022094727,-1.8938357830047607,-3.026212215423584,0.3473811745643616,-0.7980146408081055,-0.49244192242622375,-0.7962793111801147,0.05196654796600342,0.5861616134643555,0.277808414454222,-0.041841173072834435,0.5020242588067431,0.8179508385074177
1710515811086764500,3.1307646484375,-2.0816843509674072,-2.0017881393432617,-3.356607437133789,0.36278754472732544,-0.7761563658714294,-0.5157195925712585,-0.9321233034133911,0.023241758346557617,0.6332124471664429,0.2953219564692989,-0.0447848354379726,0.49003523005818095,0.8189291092057036
1710515811096783600,3.14078369140625,-2.1114063262939453,-2.169029712677002,-3.7524454593658447,0.3789088726043701,-0.7517795562744141,-0.5396811366081238,-1.034029483795166,0.013925433158874512,0.6498497724533081,0.3144093824001848,-0.04806981298375412,0.4773350347968363,0.8191382376484505
1710515811106803700,3.1508037109375,-2.124830961227417,-2.3452775478363037,-4.046939373016357,0.39537766575813293,-0.7249854803085327,-0.5639793872833252,-1.0803903341293335,0.10804200172424316,0.6292261481285095,0.3352761652940657,-0.05144485626683336,0.46407297874271547,0.8182785530055162
1710515811116822800,3.16082275390625,-2.3343122005462646,-2.473813772201538,-4.253594875335693,0.41097694635391235,-0.6953985691070557,-0.5895073413848877,-1.076229453086853,0.2112676501274109,0.515502393245697,0.3571989008796245,-0.054916688735890916,0.44970044670017445,0.8168003418027456
1710515811126841600,3.170841552734375,-2.652564287185669,-2.602769374847412,-4.439142227172852,0.42522192001342773,-0.6621091365814209,-0.6170883774757385,-1.0616962909698486,0.23870813846588135,0.44625115394592285,0.3798867586781988,-0.058766596994626955,0.43359231518272945,0.8150033956609577
1710515811136860700,3.180860595703125,-2.9887027740478516,-2.625399589538574,-4.56961727142334,0.43764540553092957,-0.6247197985649109,-0.6466774344444275,-1.0469286441802979,0.2914983034133911,0.3450876474380493,0.40298069311138945,-0.06318743640394775,0.4155341469600232,0.8129854873913532
1710515811146880500,3.190880615234375,-3.2326548099517822,-2.5613014698028564,-4.74169397354126,0.4486263394355774,-0.5834363102912903,-0.6770056486129761,-1.021380066871643,0.392197847366333,0.2531013488769531,0.426142441856785,-0.06856469434790076,0.39597482962416397,0.8104971898246467
1710515811156899600,3.200899658203125,-3.389223098754883,-2.5120043754577637,-4.962907791137695,0.45826098322868347,-0.5383254885673523,-0.7072500586509705,-1.0422451496124268,0.488566517829895,0.19443279504776,0.44950129808537265,-0.07493382110806823,0.37517982959286406,0.8072011682980635
1710515811166918700,3.210918701171875,-3.3765907287597656,-2.421065092086792,-5.222814083099365,0.46663230657577515,-0.49021098017692566,-0.7361708879470825,-1.1056549549102783,0.5710824728012085,0.08835917711257935,0.473201071516568,-0.0821063122687737,0.3537981095952081,0.8025997641979862
1710515811176937500,3.2209375,-3.29044771194458,-2.293506145477295,-5.47961950302124,0.4738774001598358,-0.4399964213371277,-0.7627866268157959,-1.136566400527954,0.6297851800918579,0.02996814250946045,0.4972639210825542,-0.08994999519823724,0.33243900519209546,0.7963177914514511
1710515811186957600,3.23095751953125,-3.2955873012542725,-2.1834216117858887,-5.713732719421387,0.4797021448612213,-0.38772109150886536,-0.7871202230453491,-1.1239433288574219,0.6579999923706055,-0.0016369819641113281,0.5215599357783532,-0.09846313387826494,0.3110384251742176,0.7883751542240298
1710515811196976600,3.2409765625,-3.4141111373901367,-2.051297187805176,-5.9026103019714355,0.4837694466114044,-0.3328562378883362,-0.8094280958175659,-1.040974497795105,0.6896219849586487,-0.058125436305999756,0.545822311140267,-0.10785774277024357,0.2892276752125596,0.778968636490975
1710515811206995700,3.25099560546875,-3.525264024734497,-2.0025930404663086,-6.033442974090576,0.4853525757789612,-0.27527979016304016,-0.8298517465591431,-0.8511666059494019,0.6965291500091553,-0.06489300727844238,0.5698210628192005,-0.11805260808850196,0.2667165058522387,0.76826425406783
1710515811217015600,3.261015625,-3.49163556098938,-1.8752069473266602,-6.038614749908447,0.4838095009326935,-0.21634255349636078,-0.8480119705200195,-0.6570270657539368,0.698032021522522,-0.06545531749725342,0.5932522908760188,-0.12856041224601047,0.24385696826216743,0.7563451561573196
1710515811227034600,3.27103466796875,-3.657240867614746,-1.7446247339248657,-5.790884017944336,0.47942301630973816,-0.15768028795719147,-0.8633021116256714,-0.5464699268341064,0.7367970943450928,-0.08634376525878906,0.6152158347221006,-0.13930233315306886,0.221232453478283,0.7437477841407302
1710515811237053400,3.281053466796875,-3.592677116394043,-1.4993799924850464,-5.680654048919678,0.47268661856651306,-0.09873006492853165,-0.8756824731826782,-0.5853420495986938,0.7942104339599609,-0.201343834400177,0.6355329755197265,-0.1506924991505728,0.19862160739358709,0.730711456656153
1710515811247072500,3.291072509765625,-3.4807136058807373,-1.277230143547058,-5.725094795227051,0.46440503001213074,-0.04030977189540863,-0.8847050666809082,-0.7318761348724365,0.9315756559371948,-0.31095826625823975,0.6546347933517915,-0.1626241264387696,0.1766376284990239,0.716802520933098
1710515811257092400,3.30109228515625,-3.195247173309326,-0.9673666954040527,-5.854467391967773,0.45507457852363586,0.015866754576563835,-0.8903119564056396,-0.8484764695167542,1.0123467445373535,-0.4357529878616333,0.6733897115513396,-0.17446303649971365,0.15622632763070893,0.701214953077169
1710515811267111400,3.311111328125,-3.1487560272216797,-0.7077298760414124,-5.927253246307373,0.44509774446487427,0.07066776603460312,-0.8926892280578613,-0.8255296945571899,0.968776285648346,-0.4947618246078491,0.6915673825771509,-0.18671368641583516,0.13708895680163855,0.6841631612360731
1710515811277130200,3.321130126953125,-3.219764232635498,-0.495814710855484,-6.023398399353027,0.43383556604385376,0.1254735141992569,-0.8922125101089478,-0.7347081899642944,0.7919612526893616,-0.40670710802078247,0.7090957269610991,-0.199671224070718,0.1184278234399895,0.6658001081209972
1710515811287149300,3.3311494140625,-3.2613072395324707,-0.4165129065513611,-6.026544094085693,0.42064693570137024,0.1802596151828766,-0.8891358971595764,-0.6690140962600708,0.6343767046928406,-0.28951388597488403,0.7258052944464798,-0.21317713492811746,0.09993779571183686,0.6463548871588767
1710515811297169400,3.34116943359375,-3.0551822185516357,-0.4352133572101593,-5.929479598999023,0.4044235050678253,0.23321983218193054,-0.884335994720459,-0.5504652261734009,0.6187547445297241,-0.13488996028900146,0.7415970368618717,-0.22619610118384448,0.08165363420968902,0.6262604139737603
1710515811307188500,3.3511884765625,-2.9664647579193115,-0.4527250826358795,-5.650008678436279,0.38553979992866516,0.28262147307395935,-0.8783417344093323,-0.33346137404441833,0.7259845733642578,-0.0010526776313781738,0.7561839865520197,-0.23818310416942973,0.0640150665509518,0.6060997746425176
1710515811317207600,3.36120751953125,-2.820927143096924,-0.4675056040287018,-5.343550205230713,0.3646257221698761,0.3288130760192871,-0.871165931224823,-0.12005770206451416,0.8335405588150024,0.04209500551223755,0.7691603652630744,-0.24944916822933313,0.04682038543979957,0.5864941210522003
1710515811327227400,3.371227294921875,-2.6955931186676025,-0.33596572279930115,-5.133871555328369,0.3427168130874634,0.37118831276893616,-0.8629973530769348,0.015361368656158447,0.8579530715942383,0.07890933752059937,0.7808686848679292,-0.2599286657136484,0.030633415608051752,0.5672238174561102
1710515811337246500,3.38124658203125,-2.7580478191375732,-0.22484956681728363,-5.029052257537842,0.3204362392425537,0.41147202253341675,-0.8532359004020691,0.008467108011245728,0.7117123603820801,0.006830930709838867,0.7914561400713042,-0.2704648028123428,0.01519387209666646,0.5479191248399541
1710515811347265500,3.391265625,-2.8455185890197754,-0.12901423871517181,-4.997690200805664,0.297274649143219,0.4507581889629364,-0.8416916728019714,-0.16803255677223206,0.5165881514549255,-0.036115825176239014,0.8010990254874265,-0.28134349428978467,0.000009285793425976372,0.5282862000776138
1710515811357284600,3.40128466796875,-2.889659881591797,-0.02535707876086235,-4.985837459564209,0.27311620116233826,0.4890640676021576,-0.8283863663673401,-0.3461140990257263,0.33843550086021423,-0.03860265016555786,0.8099225229274989,-0.2925467851721239,-0.014940001042886456,0.5081523579372624
1710515811367304400,3.411304443359375,-2.920470952987671,0.111357681453228,-4.991055965423584,0.24810124933719635,0.5259808897972107,-0.813504695892334,-0.4253014326095581,0.23546332120895386,-0.051500678062438965,0.8180255047423147,-0.30394041757054385,-0.029459567829702025,0.48742877150420877
1710515811377323300,3.4213232421875,-2.7997705936431885,0.21526330709457397,-5.023977279663086,0.2221466600894928,0.5609813332557678,-0.7974652051925659,-0.38845211267471313,0.20777177810668945,-0.052067697048187256,0.8255570490730073,-0.31524955826983114,-0.04341777970729242,0.46603453921997035
1710515811387342300,3.43134228515625,-2.5719480514526367,0.29031842947006226,-5.028926372528076,0.19504284858703613,0.5928142070770264,-0.7813639640808105,-0.2781268358230591,0.22905486822128296,-0.028557181358337402,0.8327570479627382,-0.3257519359441973,-0.05660124644896405,0.4440695361160678
1710515811397361400,3.441361328125,-2.3244922161102295,0.4086698591709137,-4.96173620223999,0.1673298478126526,0.6208179593086243,-0.7658889293670654,-0.16798585653305054,0.30224740505218506,-0.02805626392364502,0.8396662263165006,-0.3351612472854318,-0.0687202925404425,0.42178811327346233
1710515811407381500,3.451381591796875,-2.0588786602020264,0.5545632839202881,-4.910704135894775,0.139668270945549,0.6450710892677307,-0.7512497305870056,-0.07251425087451935,0.3777104616165161,-0.058427274227142334,0.8462696134646432,-0.3435693028606295,-0.07959445404748322,0.3993153669134006
1710515811417400300,3.461400390625,-2.053405284881592,0.7055096626281738,-4.865273952484131,0.11225982010364532,0.6663657426834106,-0.737125813961029,0.0013724640011787415,0.30276596546173096,-0.09792649745941162,0.8525089044595943,-0.35135874468320666,-0.08935390101039353,0.37655218996446205
1710515811427419400,3.47141943359375,-2.2498278617858887,0.8113402724266052,-4.80660343170166,0.08503004163503647,0.6868674159049988,-0.7217916250228882,-0.00022161751985549927,0.09650379419326782,-0.14412927627563477,0.8578814820410505,-0.35968671479164976,-0.09863897312844973,0.35346195066538
1710515811437438500,3.4814384765625,-2.5061652660369873,0.8409045338630676,-4.704257011413574,0.05775604769587517,0.7072529196739197,-0.7045974135398865,-0.05084375664591789,-0.03414177894592285,-0.09735852479934692,0.8621287245589134,-0.368893057220409,-0.10779235850032254,0.3302011521553577
1710515811447458600,3.49145849609375,-2.569305181503296,0.7360206246376038,-4.584555625915527,0.02992028370499611,0.7271506786346436,-0.6858256459236145,-0.10441362112760544,0.0059580206871032715,-0.03902775049209595,0.8651930823631325,-0.37863716411385934,-0.1171370458881854,0.30717085986461495
1710515811457477600,3.5014775390625,-2.2519493103027344,0.5929862260818481,-4.458921432495117,0.001026908284984529,0.7442885041236877,-0.6678575277328491,-0.14505456387996674,0.20468628406524658,-0.024937152862548828,0.8676579333354908,-0.3873713058387999,-0.12654923402757268,0.2847781943377386
1710515811467496400,3.511496337890625,-1.96089768409729,0.4497758448123932,-4.289124488830566,-0.028409302234649658,0.7575786113739014,-0.6521254777908325,-0.12515512108802795,0.41347259283065796,0.032100021839141846,0.8698977895292098,-0.3943616387887521,-0.1357061239072378,0.26332633874948785
1710515811477516300,3.521516357421875,-1.7689801454544067,0.25285691022872925,-4.127570152282715,-0.05835968628525734,0.7677428722381592,-0.6380949020385742,-0.02890530601143837,0.5568422675132751,0.07652592658996582,0.8717879788221622,-0.3999337301559484,-0.144932946448402,0.24296764618492586
1710515811487535400,3.531535400390625,-1.799066424369812,0.16647791862487793,-3.9772419929504395,-0.0883634090423584,0.7759413719177246,-0.6245854496955872,0.12033058702945709,0.5391985774040222,0.04498058557510376,0.8731107337646776,-0.40486009318101945,-0.154258147434075,0.22354077452993815
1710515811497554400,3.541554443359375,-1.9795485734939575,0.10473253577947617,-3.916482925415039,-0.1183708980679512,0.7835544943809509,-0.6099432706832886,0.240136057138443,0.3667905330657959,0.0719185471534729,0.8735862332387906,-0.41013615629816874,-0.16375809042460707,0.20449639282397905
1710515811507573200,3.5515732421875,-2.1394729614257812,0.11975697427988052,-3.7825958728790283,-0.14812906086444855,0.790841817855835,-0.5938240885734558,0.25898414850234985,0.25057071447372437,0.09390062093734741,0.8731794192551501,-0.4160089394963298,-0.1732758366932264,0.1856603551745023
1710515811517593300,3.56159326171875,-2.175548791885376,0.1220046803355217,-3.6370081901550293,-0.1768861562013626,0.7975353002548218,-0.5767571926116943,0.20815140008926392,0.22378146648406982,0.030858993530273438,0.8720101899568391,-0.42230489254971226,-0.18242801422068766,0.1672630567148262
1710515811527612400,3.5716123046875,-2.136399984359741,0.07634755969047546,-3.4934327602386475,-0.20491023361682892,0.8029685616493225,-0.5596904158592224,0.15194694697856903,0.24833166599273682,-0.05681025981903076,0.8703496567238743,-0.42844301628768594,-0.19128872909190653,0.14945502834523786
1710515811537631500,3.581631591796875,-1.9099866151809692,0.026505693793296814,-3.3239548206329346,-0.23217739164829254,0.8067668080329895,-0.5433425307273865,0.11755336821079254,0.3725699186325073,-0.11551648378372192,0.8683984989686171,-0.4340139783810936,-0.1999014899774885,0.1324967944826905
1710515811547651600,3.591651611328125,-1.7364646196365356,-0.021759573370218277,-3.1078901290893555,-0.25817763805389404,0.8085891604423523,-0.5287039875984192,0.09139910340309143,0.5782212615013123,-0.1746038794517517,0.8664543969000272,-0.4385985900565347,-0.20803671012779568,0.11665678344271366
1710515811557670400,3.60167041015625,-1.5793272256851196,-0.06881523132324219,-2.9413912296295166,-0.2829233407974243,0.8091539144515991,-0.5149993896484375,0.0797068178653717,0.7206771969795227,-0.21202057600021362,0.8643587396293577,-0.4426201505527045,-0.2158418702684578,0.10190032386173307
1710515811567689500,3.611689453125,-1.3588227033615112,0.02094363048672676,-2.7826263904571533,-0.3062729835510254,0.8080922365188599,-0.5031740069389343,0.091398686170578,0.7930737733840942,-0.18406641483306885,0.862466794931131,-0.4457304397137746,-0.223018771387266,0.08796748785299444
1710515811577708500,3.62170849609375,-1.3621388673782349,0.0401223823428154,-2.6330156326293945,-0.327979177236557,0.8062368631362915,-0.49235355854034424,0.10066896677017212,0.7853313088417053,-0.13771212100982666,0.8605811012961121,-0.44851187878691395,-0.22947834295300143,0.07468059104532813
1710515811587728400,3.631728271484375,-1.391456127166748,0.02822236716747284,-2.5751936435699463,-0.3488272726535797,0.8041622638702393,-0.48129287362098694,0.08571994304656982,0.7361516356468201,-0.10234034061431885,0.8583870863494364,-0.4514485861383675,-0.2356856868211647,0.061792001317288084
1710515811597747500,3.64174755859375,-1.3728832006454468,0.04948211461305618,-2.4628660678863525,-0.3689289391040802,0.8016982078552246,-0.4702889323234558,0.08258244395256042,0.6527698040008545,-0.07271009683609009,0.8559913845983483,-0.45439009738219716,-0.24163022903956374,0.04922847437401218
1710515811607766300,3.651766357421875,-1.3084869384765625,0.07759188860654831,-2.3398404121398926,-0.3879019320011139,0.7988117337226868,-0.45981740951538086,0.068886399269104,0.5826429128646851,-0.06741929054260254,0.8535384394948515,-0.45718126037801077,-0.24713677027574507,0.03716198212479424
1710515811617785300,3.661785400390625,-1.1793278455734253,0.047421202063560486,-2.1822590827941895,-0.40570393204689026,0.7955560684204102,-0.4499945342540741,0.04214799404144287,0.5891334414482117,-0.07086402177810669,0.8510782473700901,-0.45974777628307,-0.2522592187554752,0.025754040220153547
1710515811627805400,3.671805419921875,-0.9232840538024902,-0.0112922303378582,-1.9658496379852295,-0.4221409857273102,0.7916114330291748,-0.4417562782764435,0.04540145397186279,0.637603223323822,-0.1067359447479248,0.848903176051901,-0.4615462356432968,-0.25709325117189374,0.015549424948305074
1710515811637824500,3.681824462890625,-0.7386540174484253,-0.06182864308357239,-1.77220618724823,-0.4370621144771576,0.7872199416160583,-0.4350421726703644,0.08569791913032532,0.659923791885376,-0.11622709035873413,0.8470402783649009,-0.46263809866226685,-0.2616197567964311,0.00663892843625529
1710515811647843300,3.69184326171875,-0.6820237636566162,-0.12639793753623962,-1.5696581602096558,-0.4506392776966095,0.7828178405761719,-0.42909300327301025,0.10325753688812256,0.688892662525177,-0.08169478178024292,0.8453078649520382,-0.46340790764354456,-0.2659071580875297,-0.0011787294647044582
1710515811657863400,3.701863525390625,-0.6017017960548401,-0.208055779337883,-1.410490870475769,-0.4630325138568878,0.778703510761261,-0.42334628105163574,0.09616532921791077,0.6722701787948608,-0.07579898834228516,0.843570151267026,-0.46408980618976825,-0.27008797631104015,-0.007925412573981489
1710515811667882500,3.711882568359375,-0.6266281008720398,-0.226935476064682,-1.2242754697799683,-0.47419172525405884,0.7751417756080627,-0.41748979687690735,0.0991763174533844,0.6181995272636414,-0.07312583923339844,0.8417568701679937,-0.4649249440697383,-0.27404360875073,-0.013803886691744373
1710515811677901600,3.721901611328125,-0.5698530077934265,-0.17408263683319092,-1.043645977973938,-0.4838523864746094,0.7721650004386902,-0.4118838608264923,0.08543005585670471,0.6387543678283691,-0.0345270037651062,0.8399900840945144,-0.46588525209017706,-0.2775049534389802,-0.018941956468629693
1710515811687920600,3.731920654296875,-0.5204851627349854,-0.11081216484308243,-0.8883334398269653,-0.4918835163116455,0.7696929574012756,-0.4069688618183136,0.053376346826553345,0.6742159128189087,-0.0014781951904296875,0.8384128879869268,-0.4668477230302696,-0.28030121434446487,-0.02342007902325139
1710515811697940500,3.7419404296875,-0.4275805652141571,-0.04340222850441933,-0.7677372694015503,-0.4985511004924774,0.7675405144691467,-0.4029000997543335,0.03544679284095764,0.6362834572792053,0.003928810358047485,0.8370784826024231,-0.46770450989118006,-0.282493261755612,-0.027381640044958556
1710515811707959300,3.751959228515625,-0.28577202558517456,0.01923084259033203,-0.6614049673080444,-0.5041019320487976,0.7653731107711792,-0.400106817483902,0.04198938608169556,0.6074450612068176,0.0013338923454284668,0.8361228528495322,-0.46817917141599086,-0.284173982866243,-0.030856978130390178
1710515811717978400,3.761978271484375,-0.17260579764842987,0.08263830840587616,-0.5402657389640808,-0.5085068345069885,0.7632102370262146,-0.3986617922782898,0.05249786376953125,0.6167185306549072,-0.009632647037506104,0.8355758333501592,-0.4682478898468568,-0.28532965335248417,-0.03382581342687821
1710515811727997400,3.77199755859375,-0.12650778889656067,0.119967520236969,-0.42222246527671814,-0.5117809772491455,0.7613356113433838,-0.3980559706687927,0.04597580432891846,0.610994279384613,-0.025314152240753174,0.83529102234788,-0.4681572943430089,-0.28600832774799484,-0.036291837507607456
1710515811738017500,3.782017578125,-0.09865832328796387,0.11726388335227966,-0.30150163173675537,-0.5140476226806641,0.7599247694015503,-0.39783111214637756,0.04540431499481201,0.529412567615509,-0.04232370853424072,0.8351364087896895,-0.4680838194237207,-0.2863249581493308,-0.03824832122475409
1710515811748036400,3.792036376953125,-0.09955820441246033,0.09407398104667664,-0.21162980794906616,-0.5155739188194275,0.7589942216873169,-0.3976321220397949,0.048914313316345215,0.4122857451438904,-0.0608636736869812,0.8350089389850964,-0.46810293899825484,-0.2864674091432546,-0.039700912573965734
1710515811758055400,3.802055419921875,-0.10096967965364456,0.09278581291437149,-0.12041760236024857,-0.5164639949798584,0.7585352063179016,-0.39735326170921326,0.05636560916900635,0.3262428045272827,-0.06442326307296753,0.8348742780763905,-0.4682675838665823,-0.2864416977258725,-0.04076553376067445
1710515811768075500,3.812075439453125,-0.031614311039447784,0.06051474064588547,-0.03428245335817337,-0.5167421102523804,0.7584143877029419,-0.39722222089767456,0.05160832405090332,0.27961069345474243,-0.04189497232437134,0.8348048464946215,-0.4684365870501999,-0.2862796791949427,-0.04137887143208089
1710515811778094600,3.822094482421875,0.041095584630966187,0.042879022657871246,0.05201967805624008,-0.5164762735366821,0.758438229560852,-0.3975221812725067,0.040585100650787354,0.24070745706558228,0.003967702388763428,0.8348912157414022,-0.4684145318284359,-0.286053728380082,-0.041447024537531275
1710515811788113400,3.832113525390625,0.10274136811494827,0.01616021990776062,0.12111885845661163,-0.5157033205032349,0.7585964202880859,-0.39822328090667725,0.03674507141113281,0.2219335436820984,0.04063379764556885,0.8351211428371862,-0.46822681432782787,-0.2857481705702887,-0.04104275543028195
1710515811798132500,3.842132568359375,0.1544967144727707,-0.007852704264223576,0.1658189445734024,-0.5145778059959412,0.7588467597961426,-0.3992009460926056,0.027929246425628662,0.22494852542877197,0.08833387494087219,0.8354519284871297,-0.46790655595483405,-0.2854172130662641,-0.04025706799002511
1710515811808152300,3.85215234375,0.21276187896728516,-0.005040140822529793,0.20126934349536896,-0.5132202506065369,0.7590379118919373,-0.40058258175849915,0.049948155879974365,0.20530235767364502,0.11361080408096313,0.8359150847936716,-0.4673866992382386,-0.28505855612029896,-0.03920818621753783
1710515811818171400,3.86217138671875,0.1745431274175644,0.014498140662908554,0.2313673347234726,-0.5115562081336975,0.7593508362770081,-0.40211522579193115,0.07893902063369751,0.1706724762916565,0.11463990807533264,0.8364276360066847,-0.4668648150011848,-0.28456919969122807,-0.03803363888567596
1710515811828190500,3.8721904296875,0.13570092618465424,0.02755173295736313,0.24011607468128204,-0.5096725821495056,0.7599499821662903,-0.4033733606338501,0.09704434871673584,0.14456069469451904,0.1068800687789917,0.8368555713194118,-0.4665623556009585,-0.2839593112156708,-0.03687259388382536
1710515811838210600,3.88221044921875,0.10194800794124603,0.05270422250032425,0.2404489815235138,-0.5076799392700195,0.7606920599937439,-0.404485821723938,0.11732959747314453,0.10611408948898315,0.08345642685890198,0.8372347199929443,-0.46639727819011667,-0.2832501787657345,-0.03579155204511237
1710515811848229400,3.8922294921875,0.07185429334640503,0.09231016784906387,0.24893459677696228,-0.5055186152458191,0.7615751624107361,-0.40552979707717896,0.12400299310684204,0.06952548027038574,0.07355982065200806,0.8375873096973433,-0.46636398513309824,-0.2823822496739453,-0.034821528239219524
1710515811858248400,3.90224853515625,0.066055528819561,0.10045891255140305,0.25564444065093994,-0.5032007694244385,0.7625741362571716,-0.4065338969230652,0.10815060138702393,0.0819237232208252,0.08996003866195679,0.8379249169139795,-0.4664202709704051,-0.28139860935326205,-0.033895375286859354
1710515811868267500,3.912267578125,0.06886409223079681,0.10051216930150986,0.2779582738876343,-0.5007664561271667,0.763627290725708,-0.40756165981292725,0.0941653847694397,0.09428304433822632,0.09054529666900635,0.8382707723424535,-0.46648495069047324,-0.2803764663369779,-0.03290956669865867
1710515811878287600,3.92228759765625,0.005369275808334351,0.10350503027439117,0.29621371626853943,-0.49811458587646484,0.7649155855178833,-0.40839454531669617,0.09181874990463257,0.09322357177734375,0.07444092631340027,0.8385589202739595,-0.4667059903556591,-0.27926376925244606,-0.03187910790023054
1710515811888306400,3.932306396484375,-0.014298968017101288,0.06846773624420166,0.2920253574848175,-0.4955115020275116,0.7664265632629395,-0.4087285101413727,0.07964837551116943,0.10349243879318237,0.0661994218826294,0.8386964971733961,-0.4671542160523156,-0.2782133830355098,-0.030865958138910275
1710515811898325500,3.942325439453125,-0.03711213916540146,0.041073933243751526,0.3111889362335205,-0.4929424822330475,0.7680426239967346,-0.40880122780799866,0.07189136743545532,0.10425668954849243,0.02295246720314026,0.8387591601233925,-0.467672585293182,-0.2772755702603737,-0.02972980287429427
1710515811908344600,3.952344482421875,-0.14643411338329315,0.02645120583474636,0.3039163649082184,-0.4903504550457001,0.7700448632240295,-0.40815144777297974,0.06403502821922302,0.08664470911026001,-0.003057420253753662,0.8386046311805176,-0.46855014607523043,-0.27637842082950087,-0.028605260308604826
1710515811918364400,3.962364501953125,-0.18793228268623352,0.013067490421235561,0.3010910153388977,-0.48783713579177856,0.7723332643508911,-0.4068371653556824,0.0368177592754364,0.07886320352554321,0.007942140102386475,0.8382472455850958,-0.4697470500674484,-0.2755342664581076,-0.02757384690005422
1710515811928383200,3.97238330078125,-0.21676552295684814,0.025333158671855927,0.27795612812042236,-0.4853447675704956,0.7747347354888916,-0.4052489995956421,0.013649791479110718,0.053298890590667725,0.01822534203529358,0.837804432104025,-0.4710862376477386,-0.27468757320743975,-0.026614908170028994
1710515811938402300,3.98240234375,-0.16576305031776428,0.024348855018615723,0.22731612622737885,-0.4832846224308014,0.7767593264579773,-0.4038330316543579,-0.0058054327964782715,0.01932239532470703,0.03167140483856201,0.8374044724813446,-0.4722605756539985,-0.2739588157631536,-0.025892443365243746
1710515811948422400,3.99242236328125,-0.11149396002292633,0.0022457879967987537,0.18899697065353394,-0.4815981984138489,0.7783039808273315,-0.4028724133968353,-0.026214390993118286,0.005463838577270508,0.055033355951309204,0.8371376630233277,-0.47310113537057374,-0.27338454921231636,-0.025234753791784633
1710515811958441500,4.00244140625,-0.056401148438453674,-0.026992792263627052,0.13259680569171906,-0.48040705919265747,0.7794394493103027,-0.4020986258983612,-0.024292677640914917,0.006785035133361816,0.04482963681221008,0.8369240834623637,-0.4736986135225394,-0.27305733106007796,-0.02464704449545477
1710515811968460500,4.01246044921875,-0.04735678434371948,-0.019906705245375633,0.0960337445139885,-0.4796038568019867,0.7801544070243835,-0.401670902967453,-0.014582604169845581,0.02087116241455078,0.003737151622772217,0.8368102427084385,-0.4740298492321451,-0.27287406310486995,-0.02417172539257303
1710515811978479400,4.022479248046875,-0.07474153488874435,-0.01627175696194172,0.06533762067556381,-0.47905921936035156,0.7807863354682922,-0.40109214186668396,-0.014165908098220825,0.004537820816040039,-0.02009594440460205,0.8366455256524031,-0.47440282166092546,-0.27275609919545274,-0.023881486735201504
1710515811988499500,4.03249951171875,-0.10784915834665298,0.009726022370159626,0.06024911254644394,-0.4785919487476349,0.7814329862594604,-0.40039023756980896,-0.017242491245269775,-0.009429633617401123,-0.03138744831085205,0.836439975110196,-0.47485449142392383,-0.2726134481364531,-0.023736094633349084
1710515811998518500,4.0425185546875,-0.1660812944173813,0.0358380526304245,0.04986198619008064,-0.4779283106327057,0.782362699508667,-0.39936602115631104,-0.004371553659439087,-0.02462637424468994,-0.042238324880599976,0.8361347917754409,-0.47556373757135495,-0.27231620223371034,-0.02370049702775732
1710515812008537600,4.05253759765625,-0.1740686595439911,0.04376484081149101,0.04884039983153343,-0.4773155748844147,0.783372163772583,-0.39811795949935913,-0.011240363121032715,-0.029297947883605957,-0.01905706524848938,0.8357587420999646,-0.4764042323622715,-0.27199269137707904,-0.023798114294759243
1710515812018557400,4.062557373046875,-0.1628175973892212,0.039518699049949646,0.052277207374572754,-0.4767818748950958,0.7843226194381714,-0.3968842923641205,-0.02720072865486145,-0.017919301986694336,-0.003139883279800415,0.8353860664878354,-0.47721798668102516,-0.27169991485828965,-0.023923274815202913
