time,seconds_elapsed,rotationRateX,rotationRateY,rotationRateZ,gravityX,gravityY,gravityZ,accelerationX,accelerationY,accelerationZ,quaternionW,quaternionX,quaternionY,quaternionZ
1710516102380003800,0.03400390625,-0.3187595307826996,-0.2351008802652359,0.7643274068832397,0.0056673577055335045,0.7166576385498047,-0.6974022388458252,-0.002432481851428747,-0.17719829082489014,-0.046189069747924805,0.9212498992874006,-0.38895941843462983,0.003075906880858736,7.74710097844176e-17
1710516102390022700,0.044022705078125,-0.22683148086071014,-0.22025775909423828,0.8028926253318787,0.009713241830468178,0.7185407280921936,-0.6954171657562256,-0.009377547539770603,-0.17392390966415405,-0.042787790298461914,0.9207020115307594,-0.3902291995550011,0.003550011607252538,0.004069705525020455
1710516102400042800,0.054042724609375,-0.08171156793832779,-0.18545609712600708,0.8143412470817566,0.014162375591695309,0.7195459604263306,-0.6943004727363586,-0.03236611187458038,-0.14155817031860352,-0.05089294910430908,0.9203710459623778,-0.39093747533153955,0.004201431448287022,0.00822206153626032
1710516102410061800,0.064061767578125,0.09805074334144592,-0.1423700898885727,0.755942702293396,0.018691007047891617,0.7193726301193237,-0.6943729519844055,-0.028197230771183968,-0.12270808219909668,-0.05359756946563721,0.9203469246331957,-0.39088192243162795,0.004984289268619414,0.012173058714541576
1710516102420082000,0.07408203125,0.30984368920326233,-0.08510919660329819,0.6680591702461243,0.023053057491779327,0.7178150415420532,-0.6958521604537964,-0.032055728137493134,-0.09586673974990845,-0.06351667642593384,0.920695420028553,-0.3899223269129901,0.0058736825441538095,0.015691987375785796
1710516102430101000,0.08410107421875,0.49555739760398865,-0.007798908278346062,0.5535275340080261,0.0270901620388031,0.714820146560669,-0.6987835764884949,-0.0391140952706337,-0.0678473711013794,-0.06586480140686035,0.9214373266310455,-0.38802184503771675,0.0068753123979641275,0.01858120044341077
1710516102440124200,0.094124267578125,0.5633633136749268,0.07249060273170471,0.44452542066574097,0.030943715944886208,0.7108857035636902,-0.7026265263557434,-0.04727061092853546,-0.02974855899810791,-0.042048096656799316,0.9226664526451431,-0.3852343961284686,0.016768636572904082,9.186925963365042e-18
1710516102450143000,0.10414306640625,0.5166980624198914,0.08488580584526062,0.4149605929851532,0.03449005261063576,0.7069200873374939,-0.7064520716667175,-0.07179777324199677,0.001911759376525879,0.021912336349487305,0.9237007987576652,-0.38269021712397155,0.017949005110604443,0.0017390451793173167
1710516102460163000,0.1141630859375,0.397506445646286,0.0897817611694336,0.456072598695755,0.038180846720933914,0.703501284122467,-0.7096676826477051,-0.07754852622747421,-0.007868349552154541,0.035931169986724854,0.9245654965126353,-0.38052301573981073,0.019193951197800985,0.003532920419643757
1710516102470182100,0.12418212890625,0.2771403193473816,0.08463765680789948,0.5388340950012207,0.042289815843105316,0.7009041905403137,-0.7120006680488586,-0.05591589957475662,-0.007300615310668945,0.020853877067565918,0.9251857629043865,-0.3789161040105205,0.020548835043167027,0.00563031617819661
1710516102480201200,0.134201171875,0.18966853618621826,0.07698160409927368,0.6138044595718384,0.046929288655519485,0.6990188360214233,-0.7135617136955261,-0.0726708471775055,0.013078391551971436,0.0243222713470459,0.9255888760629264,-0.37780121771492187,0.022031513172799517,0.008132639658717624
1710516102490221300,0.14422119140625,0.19870944321155548,0.06139368936419487,0.6614241600036621,0.051912322640419006,0.697360634803772,-0.7148379683494568,-0.08566474914550781,0.022045612335205078,0.03969764709472656,0.9259045502228608,-0.3768621592899661,0.02357824551816875,0.010945532434499984
1710516102500240100,0.154240234375,0.21810178458690643,0.05823038890957832,0.6938486695289612,0.05707205459475517,0.6954678893089294,-0.7162871360778809,-0.07902945578098297,0.029843449592590332,0.05097341537475586,0.9262553393924202,-0.3757979588183946,0.025146304191107204,0.013954649839118278
1710516102510260200,0.16426025390625,0.17648908495903015,0.045359544456005096,0.6790478825569153,0.06225293502211571,0.6936206221580505,-0.7176454067230225,-0.06794445216655731,0.003797590732574463,0.06752955913543701,0.9265703750795006,-0.3747854705787875,0.026704652539970727,0.017030351379326063
1710516102520279300,0.174279296875,0.20381790399551392,0.02978404611349106,0.6097649931907654,0.06700857728719711,0.6919025182723999,-0.7188746333122253,-0.04328116774559021,-0.022514641284942627,0.07445025444030762,0.9268438881509817,-0.3738620388220534,0.02810456764508717,0.019942495955238063
1710516102530299100,0.184299072265625,0.25588536262512207,0.02313365414738655,0.5270344018936157,0.07112175971269608,0.6898127794265747,-0.7204859852790833,-0.014587946236133575,-0.04497629404067993,0.09006917476654053,0.9272204622971608,-0.37268953068072214,0.029317554901090465,0.02247726691869904
1710516102540318200,0.194318115234375,0.21900565922260284,0.016041923314332962,0.5165964365005493,0.07484538108110428,0.687690258026123,-0.7221359014511108,0.019957490265369415,-0.09067487716674805,0.13007968664169312,0.9276054237626457,-0.37149390000741894,0.030402871877408182,0.02482092226039021
1710516102550338300,0.20433837890625,0.10254296660423279,0.05093785375356674,0.45227280259132385,0.07845379412174225,0.686128556728363,-0.7232376337051392,0.048575617372989655,-0.08882313966751099,0.14528053998947144,0.9278408532123481,-0.37066163398001706,0.03148226772505271,0.02702292944451586
1710516102560357000,0.214357177734375,-0.05282745137810707,0.1188466027379036,0.3266634941101074,0.08173397183418274,0.6856216788291931,-0.7233550548553467,0.020057417452335358,-0.04083096981048584,0.10088801383972168,0.9278229263953905,-0.37048616974702975,0.032595608912124575,0.028675918495487347
1710516102570377200,0.224377197265625,-0.1723107099533081,0.15799278020858765,0.2308107316493988,0.08462885022163391,0.6862596273422241,-0.7224165797233582,-0.05662897974252701,-0.010630905628204346,0.06802821159362793,0.9275379160682963,-0.37101639027866157,0.03374250355691906,0.02969403784969503
1710516102580396300,0.234396240234375,-0.13706643879413605,0.17559680342674255,0.17869798839092255,0.08729827404022217,0.6872841119766235,-0.7211238145828247,-0.07680021226406097,0.03103870153427124,0.05501669645309448,0.9271670967282036,-0.3717800439970742,0.034895394182995344,0.03038160528608686
1710516102590416100,0.244416015625,-0.07289623469114304,0.1972009539604187,0.11935798078775406,0.08963587880134583,0.6878825426101685,-0.7202659845352173,-0.03226281702518463,0.07160848379135132,0.04301995038986206,0.9269244929461495,-0.37225016213858475,0.036011391263227444,0.030726916629600746
1710516102600435200,0.254435302734375,-0.02496466040611267,0.21428778767585754,0.11034318059682846,0.09191156923770905,0.6881281137466431,-0.7197444438934326,-0.010597482323646545,0.07125610113143921,0.05453753471374512,0.9267790634921361,-0.3724855235853171,0.037179509053667584,0.03086990799619388
1710516102610455300,0.264455322265625,-0.056885045021772385,0.2189711183309555,0.13179999589920044,0.09431684762239456,0.6882662773132324,-0.7193009853363037,0.008191689848899841,0.059002459049224854,0.07916432619094849,0.9266541971326903,-0.3726578142965471,0.03841421684857571,0.031025057233730568
1710516102620474000,0.27447412109375,-0.15358175337314606,0.22345881164073944,0.17326727509498596,0.09693531692028046,0.6888673305511475,-0.718376874923706,0.037708260118961334,0.06813651323318481,0.07973557710647583,0.9263946552495627,-0.3731427045606241,0.039699755301950385,0.03132853846624966
1710516102630494200,0.284494140625,-0.29112711548805237,0.23435018956661224,0.2285265326499939,0.09997571259737015,0.6902721524238586,-0.716609537601471,0.062469348311424255,0.06236767768859863,0.083537757396698,0.9258984179155108,-0.3741736340202242,0.04110120085324703,0.031889789726259034
1710516102640513300,0.29451318359375,-0.35981082916259766,0.26892387866973877,0.2695906162261963,0.10350189357995987,0.6923454403877258,-0.7141044735908508,0.07348480820655823,0.031943559646606445,0.0900810956954956,0.9251955980949302,-0.3756674581207508,0.04268173841521562,0.03264054760424101
1710516102650533000,0.304533203125,-0.4186754524707794,0.31607785820961,0.3042793571949005,0.10758567601442337,0.6948537826538086,-0.7110580801963806,0.04080604761838913,0.06140238046646118,0.06994485855102539,0.9243408216306956,-0.3774782316672944,0.04451018392907155,0.03351255031703857
1710516102660552200,0.31455224609375,-0.3472130000591278,0.3766306936740875,0.2863229811191559,0.11214090138673782,0.6973069906234741,-0.7079458832740784,-0.01089882105588913,0.13693684339523315,0.051253437995910645,0.9234691128390653,-0.3792801712412355,0.04662193001526186,0.034319057170486396
1710516102670572300,0.324572265625,-0.3062905967235565,0.3951113224029541,0.25690677762031555,0.116827592253685,0.6992579698562622,-0.7052585482597351,-0.025335870683193207,0.17873281240463257,0.06095623970031738,0.9227181145643213,-0.38076310244418493,0.0488896668307716,0.03493619257669929
1710516102680591000,0.334591064453125,-0.35942280292510986,0.3710363507270813,0.18364055454730988,0.12104642391204834,0.7013172507286072,-0.7024968862533569,0.00840914249420166,0.1649700403213501,0.07394170761108398,0.9219563074931238,-0.3822943494500597,0.05101542776773172,0.03528490102039872
1710516102690611200,0.344611083984375,-0.4383234977722168,0.34640878438949585,0.13517102599143982,0.12469960004091263,0.7039341330528259,-0.6992329955101013,0.06740856915712357,0.10130274295806885,0.1085195541381836,0.921064994270141,-0.38416636052729536,0.052912321538715376,0.03543806497652161
1710516102700630300,0.35463037109375,-0.48062726855278015,0.31541359424591064,0.08717048168182373,0.127822145819664,0.7070070505142212,-0.6955590844154358,0.11120679974555969,0.02321755886077881,0.14499157667160034,0.9200669382507441,-0.3863176830206265,0.054581119893670864,0.03544437648138997
1710516102710650000,0.364650146484375,-0.5093169212341309,0.27134984731674194,0.03505241498351097,0.13029862940311432,0.7103877663612366,-0.691644012928009,0.11991500854492188,0.015091419219970703,0.1680692434310913,0.9190085392634956,-0.3886459291099196,0.055967193061001265,0.03528915230921483
1710516102720669200,0.374669189453125,-0.45225900411605835,0.2120463103055954,-0.0017053334740921855,0.13207903504371643,0.7137355208396912,-0.6878494024276733,0.12680159509181976,0.011499524116516113,0.20706027746200562,0.917985888387265,-0.39092657726371666,0.057023679026947396,0.03502598040143042
1710516102730689000,0.38468896484375,-0.3728376626968384,0.2008514553308487,-0.0017063987907022238,0.13347019255161285,0.716562807559967,-0.6846338510513306,0.14411769807338715,0.009892940521240234,0.25416821241378784,0.9171210017579597,-0.3928509230585781,0.0578897021493099,0.03472877923592958
1710516102740710000,0.3947099609375,-0.34406062960624695,0.2042885273694992,-0.01965131051838398,0.1347837895154953,0.7190202474594116,-0.6817941665649414,0.1397218108177185,0.05095350742340088,0.24356180429458618,0.9163591014241489,-0.3945291664911571,0.058733808341568154,0.03439704109969968
1710516102750729500,0.4047294921875,-0.2723901569843292,0.2185501754283905,-0.053378116339445114,0.1359611600637436,0.7212086319923401,-0.6792442202568054,0.10228957235813141,0.12246513366699219,0.1968986988067627,0.9156814424946706,-0.39601584304378845,0.05957632149813236,0.03390684234322801
1710516102760748500,0.41474853515625,-0.14006061851978302,0.2523789703845978,-0.1063569039106369,0.13700798153877258,0.722754955291748,-0.6773877143859863,0.08021613955497742,0.16146135330200195,0.1645703911781311,0.9152021070187167,-0.39705122671409415,0.06046879346071086,0.03315145800007587
1710516102770768600,0.4247685546875,0.013512690551578999,0.2888997495174408,-0.15501020848751068,0.13786786794662476,0.7233327627182007,-0.6765961050987244,0.09173116087913513,0.1808268427848816,0.14824533462524414,0.9150261974615931,-0.39740208735458254,0.0614290763348265,0.032019753225539196
1710516102780787700,0.43478759765625,0.01987231895327568,0.3303036391735077,-0.17692109942436218,0.13877935707569122,0.7233982682228088,-0.6763396859169006,0.11234980821609497,0.22191429138183594,0.1538482904434204,0.9150034204847434,-0.3973918786700902,0.06252887831726442,0.030638634758106544
1710516102790807800,0.444807861328125,-0.08037119358778,0.3343662619590759,-0.26397183537483215,0.1394643485546112,0.7238823771476746,-0.6756805181503296,0.13006691634655,0.22866284847259521,0.1559356451034546,0.914878055198411,-0.3976310194237857,0.06363431698839044,0.028957841719654053
1710516102800826600,0.45482666015625,-0.24394628405570984,0.31358879804611206,-0.29702141880989075,0.1396235227584839,0.7253397107124329,-0.67408287525177,0.1526128053665161,0.20360016822814941,0.13830101490020752,0.9144991353843266,-0.3984882944523753,0.06454184623362749,0.027073056974522284
1710516102810846500,0.464846435546875,-0.403720498085022,0.31253427267074585,-0.26330631971359253,0.13963322341442108,0.7279738783836365,-0.671235203742981,0.1912688910961151,0.1362534761428833,0.11814993619918823,0.9137722389209912,-0.40014073288118684,0.06534363416876436,0.02525963914984552
1710516102820865500,0.474865478515625,-0.47408759593963623,0.36517590284347534,-0.20267066359519958,0.14018408954143524,0.731255829334259,-0.6675427556037903,0.20915064215660095,0.09796786308288574,0.11285531520843506,0.9128042518720049,-0.40227473047797985,0.06636008099176968,0.02366115204016609
1710516102830885600,0.4848857421875,-0.5356284976005554,0.40886932611465454,-0.1560131460428238,0.14146775007247925,0.734871506690979,-0.663287878036499,0.16724808514118195,0.14206641912460327,0.1066015362739563,0.9116741495631181,-0.4046856055483051,0.06771718406429064,0.022234214019243834
1710516102840904700,0.49490478515625,-0.6454148888587952,0.4177650809288025,-0.12229698896408081,0.14318972826004028,0.738952100276947,-0.6583665609359741,0.10679502785205841,0.17878782749176025,0.0976061224937439,0.9103538825726475,-0.4074542357841717,0.06926589257047802,0.020955456042965094
1710516102850924800,0.5049248046875,-0.7053578495979309,0.4199933409690857,-0.13784480094909668,0.14498889446258545,0.7436496615409851,-0.6526587009429932,0.10194410383701324,0.16725432872772217,0.08422309160232544,0.9088120596050516,-0.41067232961474426,0.0708440495575034,0.019749371098980156
1710516102860943600,0.514943603515625,-0.6320735216140747,0.4345696270465851,-0.14702898263931274,0.1467023342847824,0.7482412457466125,-0.6470035314559937,0.12237115204334259,0.12549233436584473,0.07286107540130615,0.9072823524795453,-0.4138262978684672,0.07242948764398409,0.01845502245426909
1710516102870963500,0.52496337890625,-0.5037546753883362,0.4303714334964752,-0.13347721099853516,0.1484559327363968,0.7521541118621826,-0.6420475840568542,0.12159411609172821,0.10299426317214966,0.08490347862243652,0.905941875019228,-0.4165226923404431,0.07406116323426529,0.017124766860191095
1710516102880982500,0.534982421875,-0.37364381551742554,0.4153868854045868,-0.12824863195419312,0.15017415583133698,0.7551048398017883,-0.6381728649139404,0.10743999481201172,0.12735682725906372,0.11200404167175293,0.9048959841025848,-0.4185548207834756,0.07566666268187294,0.015808246649907792
1710516102891002600,0.545002685546875,-0.3928532004356384,0.39234498143196106,-0.16863253712654114,0.15168915688991547,0.7577666640281677,-0.6346496939659119,0.10165251791477203,0.12501537799835205,0.11861276626586914,0.9039447689889081,-0.42037828343015343,0.07718332945706656,0.014451530751813662
1710516102901021700,0.555021728515625,-0.40934693813323975,0.3449455201625824,-0.25250905752182007,0.1524478942155838,0.7606237530708313,-0.6310397982597351,0.1086452454328537,0.08317208290100098,0.12809497117996216,0.9029694991284289,-0.422297671784878,0.07838868789246291,0.012885120062817626
1710516102911041800,0.565041748046875,-0.47710496187210083,0.31149905920028687,-0.30612701177597046,0.15232554078102112,0.7638351321220398,-0.6271785497665405,0.11931140720844269,0.04614722728729248,0.1171688437461853,0.9019239358845391,-0.42442059591469145,0.07923308257067374,0.011075237448189225
1710516102921060600,0.575060546875,-0.5324369072914124,0.31502535939216614,-0.31583982706069946,0.15188293159008026,0.767514169216156,-0.6227789521217346,0.12991639971733093,0.0047637224197387695,0.0899878740310669,0.9007245247717451,-0.42687139548310965,0.07994584463235636,0.00921186509554054
1710516102931080700,0.585080810546875,-0.5043458938598633,0.33515194058418274,-0.3016992509365082,0.15150240063667297,0.7712420225143433,-0.618249773979187,0.11120815575122833,-0.004716753959655762,0.08097261190414429,0.8994838987751853,-0.42937052268127784,0.080722185651427,0.007319765534532319
1710516102941099500,0.595099609375,-0.4657473862171173,0.3714044988155365,-0.2755315601825714,0.15145982801914215,0.7746618390083313,-0.6139698028564453,0.06548963487148285,0.04835152626037598,0.05633741617202759,0.8983067287498635,-0.4316759762471666,0.08167585888446534,0.005466932409337204
1710516102951119600,0.60511962890625,-0.48334261775016785,0.3845861256122589,-0.26724299788475037,0.15168485045433044,0.777952253818512,-0.609739363193512,0.037630945444107056,0.08052259683609009,0.04046452045440674,0.8971380801291765,-0.4339080029795625,0.08278982424072054,0.0036148669746745962
1710516102961138700,0.615138671875,-0.5537641048431396,0.3531177043914795,-0.2726942300796509,0.15186524391174316,0.7815499305725098,-0.6050758957862854,0.02867676317691803,0.07513958215713501,0.056217312812805176,0.895843100427878,-0.4363791759647338,0.08387657963627444,0.0018157797749047144
1710516102971158800,0.62515869140625,-0.2498568892478943,0.20903268456459045,-0.3233203887939453,0.15120528638362885,0.7845844626426697,-0.6013020277023315,0.03986530005931854,0.06143909692764282,0.0715017318725586,0.8947910533235139,-0.438421169092478,0.08447396903353231,0.00003669475694254954
1710516102981177600,0.635177490234375,-0.06369474530220032,0.2017955332994461,-0.29490765929222107,0.14999759197235107,0.7858214378356934,-0.5999878644943237,0.055599361658096313,0.06673294305801392,0.06885993480682373,0.8944221859579146,-0.43912815382103765,0.08469088677571719,-0.0017093279842011451
1710516102991197700,0.64519775390625,-0.05180826038122177,0.22621358931064606,-0.38375550508499146,0.14864586293697357,0.7866817712783813,-0.5991963148117065,0.043508052825927734,0.10263103246688843,0.0704488754272461,0.8941950877464134,-0.43953557204432314,0.08491357767046787,-0.0036547016977912703
1710516103001216800,0.655216796875,-0.1037534847855568,0.24637025594711304,-0.5104522109031677,0.14657816290855408,0.7877535820007324,-0.5982969403266907,-0.018495887517929077,0.17600685358047485,0.07183825969696045,0.8939300633088316,-0.4400293128325225,0.08500430170228757,-0.006133272178667085
1710516103011236600,0.665236572265625,-0.25295495986938477,0.2525354027748108,-0.647250235080719,0.14344604313373566,0.7896748185157776,-0.5965206623077393,-0.06136901676654816,0.1879863739013672,0.0010769963264465332,0.8934066400923009,-0.4410709288994793,0.0848298537071014,-0.009215150247606201
1710516103021255700,0.675255615234375,-0.38154515624046326,0.31798499822616577,-0.7411565184593201,0.13963961601257324,0.7925582528114319,-0.5935925841331482,-0.028052091598510742,0.1356797218322754,-0.02898120880126953,0.8925424615348999,-0.44277457426889877,0.08458356240550026,-0.012816039613950158
1710516103031275800,0.68527587890625,-0.4484115242958069,0.3907976448535919,-0.7739868760108948,0.13566794991493225,0.796116828918457,-0.5897390246391296,0.002515643835067749,0.09914684295654297,-0.01499718427658081,0.8913954795752503,-0.4449601524560175,0.08450408558217859,-0.016838772203944016
1710516103041294600,0.695294677734375,-0.4495420455932617,0.4351363480091095,-0.740202009677887,0.13203391432762146,0.7997803688049316,-0.5855923295021057,-0.012420281767845154,0.10849905014038086,-0.032068073749542236,0.8901441155703831,-0.4472468979006013,0.08469966489853895,-0.020968166865858777
1710516103051314700,0.705314697265625,-0.47047820687294006,0.4412822723388672,-0.6865358948707581,0.12890180945396423,0.8034029603004456,-0.5813157558441162,-0.023768752813339233,0.125186026096344,-0.02433598041534424,0.8888397688160454,-0.4495511193405549,0.08512284756692386,-0.02493524044312623
1710516103061333800,0.715333740234375,-0.4385541081428528,0.3783230185508728,-0.6625330448150635,0.12585757672786713,0.8069339990615845,-0.5770766735076904,-0.005862444639205933,0.1056942343711853,-0.00553441047668457,0.8875341560072744,-0.4518321271712079,0.08549500889053659,-0.028663188869875282
1710516103071353600,0.725353515625,-0.3967669904232025,0.3221474289894104,-0.6197558045387268,0.12266739457845688,0.8101367950439453,-0.5732636451721191,0.028455659747123718,0.06999021768569946,-0.006280422210693359,0.886340606979868,-0.4539072307571253,0.08565284265764482,-0.03212968124216
1710516103081372700,0.73537255859375,-0.3377279043197632,0.2719516158103943,-0.5890063643455505,0.11945676803588867,0.8130254745483398,-0.5698419809341431,0.06341982632875443,0.026330113410949707,-0.012357115745544434,0.8852531391605148,-0.455786690354982,0.08565930217826677,-0.03532745393849701
1710516103091392800,0.745392822265625,-0.21384723484516144,0.22665321826934814,-0.5727411508560181,0.11616557836532593,0.8152828216552734,-0.5672914981842041,0.07052569836378098,0.0028935670852661133,0.0018161535263061523,0.8844076002400384,-0.45721520201760985,0.08548975716143237,-0.038329875991885295
1710516103101411600,0.75541162109375,-0.21777379512786865,0.2066318392753601,-0.5588541030883789,0.11271834373474121,0.8170827031135559,-0.5653942227363586,0.053297288715839386,0.03345757722854614,0.000773310661315918,0.88373974240663,-0.4583120194057411,0.0851644865901682,-0.04124716098768642
1710516103111431700,0.765431640625,-0.35276463627815247,0.20328696072101593,-0.5642829537391663,0.10919619351625443,0.8193237781524658,-0.5628363490104675,0.04195735603570938,0.08454591035842896,0.010727643966674805,0.8828765373778368,-0.45976864427056024,0.08482103782105992,-0.04412742708325832
1710516103121450800,0.77545068359375,-0.31885647773742676,0.28335490822792053,-1.1320618391036987,0.10454835742712021,0.8222869038581848,-0.5593871474266052,0.04077634960412979,0.04570937156677246,0.042205810546875,0.8817136450517553,-0.4617423772696934,0.08426387030239872,-0.04769418015464927
1710516103131470600,0.785470703125,-0.7918881773948669,0.20704884827136993,-0.7843133211135864,0.09731657803058624,0.8262612819671631,-0.5548169612884521,0.04587189108133316,-0.12333458662033081,0.05188727378845215,0.8801390247637607,-0.4644331542151226,0.08302634043800682,-0.05257254752654894
1710516103141489700,0.79548974609375,-0.489012748003006,0.062189921736717224,-0.6414922475814819,0.09239695966243744,0.8308114409446716,-0.5488308072090149,0.13082388043403625,-0.2674720883369446,0.04724395275115967,0.8782512313130342,-0.46778817838877734,0.08221206578514811,-0.05559004822897333
1710516103151509800,0.805509765625,-0.12461695075035095,0.09179367870092392,-0.8669522404670715,0.08653245866298676,0.8329792022705078,-0.5464959740638733,0.12149060517549515,-0.20593440532684326,0.057024598121643066,0.8773644240535705,-0.4692685265124693,0.08086455578676127,-0.058988516998309704
1710516103161528600,0.815528564453125,0.07798542827367783,0.020143190398812294,-0.7949257493019104,0.07986902445554733,0.8338693976402283,-0.5461527109146118,-0.04784084111452103,-0.09246009588241577,0.021891295909881592,0.8770016912129669,-0.4697393203889072,0.07917465663913192,-0.06280460921334967
1710516103171548700,0.825548583984375,0.19059371948242188,-0.035342223942279816,-0.8448887467384338,0.07302975654602051,0.8336549401283264,-0.547435998916626,0.011549726128578186,0.03983449935913086,0.03417611122131348,0.8771024061149594,-0.4693901741398719,0.07716784506008026,-0.06640365852280841
1710516103181567700,0.835567626953125,0.11580710858106613,-0.05853463336825371,-0.8911055326461792,0.06550494581460953,0.833435595035553,-0.5487205982208252,0.07194621860980988,-0.0335240364074707,-0.0027167201042175293,0.8771741662765693,-0.4690779298894661,0.07487048184168224,-0.07018446038729644
1710516103191587600,0.845587646484375,0.07920834422111511,-0.07899601757526398,-0.9180143475532532,0.05757927522063255,0.833472728729248,-0.5495526194572449,0.01728035882115364,-0.16786891222000122,-0.029259026050567627,0.8770962724265065,-0.4690216404028247,0.07240439819065288,-0.07401788762304153
1710516103201606700,0.855606689453125,0.05361590161919594,-0.07948870211839676,-0.9523805975914001,0.04932474344968796,0.8336012959480286,-0.5501601099967957,0.009986184537410736,-0.17115604877471924,-0.031626999378204346,0.87692746656111,-0.46908837789344576,0.06982859942475603,-0.07796450763299408
1710516103211626800,0.865626708984375,-0.040637366473674774,-0.08953516185283661,-0.9674271941184998,0.0408286526799202,0.833986759185791,-0.5502719879150391,0.021961253136396408,-0.14973682165145874,-0.06722068786621094,0.8765916949381255,-0.4694131340352704,0.0671962036799323,-0.08199452638945055
1710516103221645600,0.8756455078125,-0.12187735736370087,-0.13206423819065094,-0.9687044620513916,0.03213190287351608,0.8348138928413391,-0.5495938658714294,0.020922910422086716,-0.15509581565856934,-0.08665180206298828,0.8760173907581037,-0.4701548335255977,0.06447873598616595,-0.08596857896123565
1710516103231665700,0.885665771484375,-0.2077760249376297,-0.20905297994613647,-0.9360882043838501,0.023211495950818062,0.8359524011611938,-0.5483109951019287,0.03091142512857914,-0.2067713737487793,-0.09225291013717651,0.8752770193824708,-0.4712281786454587,0.06155082712338807,-0.08969810951860488
1710516103241684700,0.895684814453125,-0.25623518228530884,-0.2822217345237732,-0.9248821139335632,0.014092454686760902,0.8374776840209961,-0.5462899208068848,0.05235956981778145,-0.2694386839866638,-0.10698455572128296,0.8743433423391275,-0.4726996822414906,0.05839557028294724,-0.09310679142942269
1710516103251704600,0.90570458984375,-0.10929658263921738,-0.2995148003101349,-0.9220208525657654,0.004687653388828039,0.838593065738678,-0.544738233089447,0.07413923740386963,-0.2811741828918457,-0.0989079475402832,0.8735421197581577,-0.47392779886386704,0.05498474596465196,-0.09640216308906037
1710516103261723600,0.9157236328125,-0.06299726665019989,-0.25151851773262024,-0.8908778429031372,-0.004430567845702171,0.8390380144119263,-0.5440549254417419,0.09192444384098053,-0.23582744598388672,-0.03767108917236328,0.8729779164590392,-0.4746613383271858,0.051663907214750206,-0.09968524961348507
1710516103271743700,0.92574365234375,0.014518831856548786,-0.2565246522426605,-0.8390713334083557,-0.013085523620247841,0.839106023311615,-0.5438104867935181,0.09533040225505829,-0.12687146663665771,0.014040648937225342,0.8725361019615556,-0.47512089175789884,0.04852719888860349,-0.10288853975144555
1710516103281762600,0.935762451171875,-0.08694067597389221,-0.34292319416999817,-0.7145124077796936,-0.021244948729872704,0.8390675187110901,-0.5436123013496399,0.07165997475385666,-0.028566420078277588,-0.012341558933258057,0.8721572115853535,-0.47553514888324566,0.04538897504622693,-0.10558377580965142
1710516103291782700,0.94578271484375,-0.3246091604232788,-0.4213405251502991,-0.6309248208999634,-0.028961170464754105,0.8400378227233887,-0.5417543649673462,0.056533802300691605,-0.1221880316734314,-0.05204135179519653,0.8713858929364917,-0.47680186324467955,0.04222318949866223,-0.10753581457084878
1710516103301801700,0.9558017578125,-0.4539932310581207,-0.4796384572982788,-0.6015461683273315,-0.03658473491668701,0.8419909477233887,-0.5382499098777771,0.07995021343231201,-0.2428697943687439,-0.027256011962890625,0.8701894762006601,-0.4789089669398662,0.03900332226786912,-0.10906592294580963
1710516103311821800,0.96582177734375,-0.5752221941947937,-0.5201019048690796,-0.5399903655052185,-0.044140271842479706,0.8444841504096985,-0.5337587594985962,0.10282555222511292,-0.25067299604415894,-0.011330962181091309,0.8687474039508405,-0.48150347160683393,0.035707720589191555,-0.11026114972252701
1710516103321840600,0.975840576171875,-0.6838195323944092,-0.5504547953605652,-0.48663899302482605,-0.051281191408634186,0.8476526141166687,-0.5280675292015076,0.0941278487443924,-0.23153316974639893,-0.023064613342285156,0.8670043884595336,-0.48467387905872034,0.03251850859100948,-0.11107321552458736
1710516103331860700,0.98586083984375,-0.7023136019706726,-0.6343837976455688,-0.46321889758110046,-0.058439794927835464,0.8510525226593018,-0.5218183994293213,0.07227950543165207,-0.255959689617157,-0.01942598819732666,0.8651350034413664,-0.48809773564008113,0.02917853231661278,-0.11158270988743407
1710516103341879600,0.995879638671875,-0.6386749744415283,-0.6733048558235168,-0.4492594003677368,-0.06572742760181427,0.8543115854263306,-0.5155887007713318,0.04784410446882248,-0.3241906762123108,-0.024358749389648438,0.8633006389057493,-0.49147772297272985,0.0255986331166462,-0.11183218698012089
1710516103351899600,1.005899658203125,-0.43396681547164917,-0.6586135029792786,-0.4643603265285492,-0.07308278232812881,0.8567501902580261,-0.5105273127555847,0.043618038296699524,-0.30667078495025635,-0.025773286819458008,0.8617994433806402,-0.4942241038209688,0.021883409606110803,-0.11209590789266036
1710516103361918700,1.015918701171875,-0.36995187401771545,-0.6418603658676147,-0.48304399847984314,-0.08043120056390762,0.8584160208702087,-0.5066092610359192,0.03036709874868393,-0.1906607747077942,0.012178778648376465,0.8606123519224277,-0.4963529363218717,0.018141665135996663,-0.1124775050153207
1710516103371938800,1.025938720703125,-0.3030458092689514,-0.6691614985466003,-0.5164336562156677,-0.08805828541517258,0.8596727252006531,-0.5031984448432922,-0.001495562493801117,-0.1034013032913208,0.004281878471374512,0.8595523780061088,-0.4981938428595875,0.014271279155331313,-0.11300029909621691
1710516103381958000,1.0359580078125,-0.4979982376098633,-0.7514121532440186,-0.47295674681663513,-0.0959094911813736,0.8611543774604797,-0.49921393394470215,-0.024940125644207,-0.11640340089797974,-0.0074388086795806885,0.8583471086023303,-0.500289002513201,0.010195120417061146,-0.11334588088259966
1710516103391977500,1.0459775390625,-0.6661494374275208,-0.8192615509033203,-0.48396146297454834,-0.10390084981918335,0.8636223673820496,-0.4933163821697235,-0.023479513823986053,-0.22400438785552979,-0.020157039165496826,0.8566243857680778,-0.5032953870000241,0.00596339663603627,-0.11337043639420645
1710516103401996500,1.05599658203125,-0.7078607082366943,-0.8742965459823608,-0.5366625189781189,-0.11247818171977997,0.8665018677711487,-0.48633649945259094,-0.009515851736068726,-0.24711710214614868,-0.024390369653701782,0.8545798842846726,-0.5067836478097124,0.001444610003236288,-0.11340860256234313
1710516103412016600,1.0660166015625,-0.5426024794578552,-0.9539728164672852,-0.588668942451477,-0.12178811430931091,0.8689175248146057,-0.47973963618278503,-0.019996553659439087,-0.18727684020996094,-0.03672453761100769,0.8526368168345195,-0.5100173611150944,-0.003531773043952235,-0.11349169876493093
1710516103422035700,1.07603564453125,-0.3463141918182373,-1.059539794921875,-0.618849515914917,-0.13187266886234283,0.8702757954597473,-0.47458377480506897,-0.02471303939819336,-0.11574387550354004,-0.05555224418640137,0.8511215067782276,-0.5124693556361636,-0.009125123186542836,-0.11350873095502775
1710516103432055800,1.086055908203125,-0.2631306052207947,-1.12544584274292,-0.6266680359840393,-0.14251486957073212,0.8707777261734009,-0.4705696702003479,-0.01639018952846527,-0.08563661575317383,-0.08498752117156982,0.8499598037126249,-0.514279054267391,-0.015238935463846004,-0.11337220957652946
1710516103442075000,1.096074951171875,-0.3213252127170563,-1.118341088294983,-0.6405028700828552,-0.15332193672657013,0.871203601360321,-0.4663654565811157,-0.008680641651153564,-0.07646477222442627,-0.130573570728302,0.8487485852022196,-0.5160957647484777,-0.02150434511943114,-0.11317509047014412
1710516103452094500,1.106094482421875,-0.4201434254646301,-1.0466134548187256,-0.6614243984222412,-0.16405245661735535,0.8718934059143066,-0.4613986611366272,-0.00814296305179596,-0.041983067989349365,-0.12249410152435303,0.847283145475287,-0.5182081404646697,-0.027586197173195205,-0.11318407978912742
1710516103462113500,1.116113525390625,-0.45754724740982056,-0.9765194654464722,-0.6447173357009888,-0.17444725334644318,0.8728111386299133,-0.4558168053627014,-0.019995510578155518,0.005179643630981445,-0.08530554175376892,0.8456049789649368,-0.5205576320865827,-0.033336822411587266,-0.11340501295595316
1710516103472133600,1.126133544921875,-0.4807034432888031,-0.9141038656234741,-0.585750937461853,-0.18412069976329803,0.8738261461257935,-0.45003053545951843,-0.019706204533576965,0.03761190176010132,-0.07050776481628418,0.8438625319610911,-0.5229616654302572,-0.03867601659282771,-0.11362803452534892
1710516103482152700,1.136152587890625,-0.47209450602531433,-0.8630654215812683,-0.5456397533416748,-0.19300906360149384,0.874914824962616,-0.4441525638103485,0.005737960338592529,0.03745394945144653,-0.04765331745147705,0.8420951714302946,-0.5253789116773508,-0.04359718384700488,-0.1138065362866225
1710516103492172800,1.1461728515625,-0.48627370595932007,-0.8295440673828125,-0.5224918127059937,-0.2014179825782776,0.8760351538658142,-0.43817025423049927,0.029802396893501282,0.014910280704498291,-0.038468390703201294,0.8403036544840299,-0.5278085484885774,-0.04830115549086439,-0.11390750820278693
1710516103502191900,1.15619189453125,-0.5163184404373169,-0.7360695004463196,-0.5173015594482422,-0.20942161977291107,0.8770920634269714,-0.4322638213634491,0.030085042119026184,0.016538918018341064,-0.05943527817726135,0.8385118079572446,-0.5301797082764199,-0.05270259662595181,-0.11414820186662726
1710516103512211500,1.16621142578125,-0.561591386795044,-0.6537128686904907,-0.5056374669075012,-0.21685197949409485,0.8783655762672424,-0.4259684085845947,0.03745436668395996,0.05641835927963257,-0.09344068169593811,0.836570760383605,-0.5327373290690163,-0.05662805134203531,-0.11460172280520572
1710516103522230500,1.17623046875,-0.7324797511100769,-0.602285623550415,-0.5476469397544861,-0.22407174110412598,0.8799732327461243,-0.4188545048236847,0.04635263979434967,0.11135989427566528,-0.11344826221466064,0.8343487956606396,-0.5356683451630243,-0.060267515575710105,-0.1152798084941023
1710516103532250600,1.186250732421875,-0.6613791584968567,-0.55811607837677,-0.6945400238037109,-0.2319829761981964,0.8814489245414734,-0.4113781154155731,0.00633595883846283,0.15123558044433594,-0.06735110282897949,0.8319316051281607,-0.5387201169178366,-0.06396543137686032,-0.1165292018381166
1710516103542269700,1.196269775390625,-0.7702598571777344,-0.5256657600402832,-0.7519732117652893,-0.2405846267938614,0.8826649785041809,-0.40375953912734985,-0.021652936935424805,0.12313342094421387,0.04525434970855713,0.8293838598012752,-0.5417855642363041,-0.06773949870221525,-0.11833143529810623
1710516103552289800,1.206289794921875,-0.8565008044242859,-0.5245955586433411,-0.8095081448554993,-0.24957604706287384,0.8840076327323914,-0.3952752351760864,0.05913105607032776,0.016688227653503418,0.1170312762260437,0.8265217226389159,-0.5451998546410962,-0.07155066379619551,-0.12041427309832073
1710516103562308600,1.21630859375,-0.9122434258460999,-0.49902626872062683,-0.8502861857414246,-0.2589532434940338,0.8853396773338318,-0.38615682721138,0.13280880451202393,-0.02811610698699951,0.17947661876678467,0.8234114123181882,-0.5488484638172798,-0.0754118758124015,-0.12276907090805489
1710516103572328400,1.226328369140625,-1.0038976669311523,-0.4424857199192047,-0.8813967108726501,-0.26843497157096863,0.886756420135498,-0.37630560994148254,0.10980454087257385,-0.02616065740585327,0.2311946153640747,0.8200165389048196,-0.5527967169690408,-0.07913897684132212,-0.12540271718056498
1710516103582347500,1.236347412109375,-0.7592527866363525,-0.4001435935497284,-0.941253125667572,-0.27809596061706543,0.8875789642333984,-0.3672415614128113,0.02066493034362793,0.04955488443374634,0.23612284660339355,0.8167920923795594,-0.5563454721188317,-0.08281872465699473,-0.128341668946014
1710516103592367600,1.24636767578125,-0.6029808521270752,-0.3524729311466217,-0.9667728543281555,-0.2879565954208374,0.8873398303985596,-0.36015161871910095,-0.0440899133682251,0.1303146481513977,0.18543857336044312,0.8141203558807918,-0.5589513037879714,-0.08658885601151463,-0.1314685966313805
1710516103602386700,1.25638671875,-0.3360181450843811,-0.2191026359796524,-1.0231667757034302,-0.29784873127937317,0.8861337304115295,-0.35503995418548584,-0.015002280473709106,0.15936815738677979,0.082792729139328,0.8119834286317346,-0.5606558507147186,-0.09024983698074711,-0.13491875342841508
1710516103612406800,1.26640673828125,-0.27724671363830566,-0.04334374517202377,-0.9538160562515259,-0.30713772773742676,0.8841181397438049,-0.3521387577056885,0.021264314651489258,0.25028133392333984,-0.022220313549041748,0.8104462191071949,-0.5614362592436569,-0.09338069908621834,-0.13873139668658294
1710516103622425600,1.276425537109375,-0.3448116183280945,0.05883827805519104,-0.8881406188011169,-0.31518319249153137,0.8823679089546204,-0.349408894777298,-0.023348331451416016,0.3014395236968994,-0.11795246601104736,0.8089276848494393,-0.5622633892981695,-0.09568401999623072,-0.14262024918426935
1710516103632445700,1.28644580078125,-0.4475076496601105,0.13917690515518188,-0.8756014108657837,-0.32264241576194763,0.880910336971283,-0.3462642431259155,-0.08556070923805237,0.3148447275161743,-0.0846744179725647,0.8072314365672261,-0.5633497695164914,-0.0974931891218039,-0.14666136694092596
1710516103642464500,1.296464599609375,-0.5282477736473083,0.16953055560588837,-0.8124272227287292,-0.32956576347351074,0.8798336982727051,-0.34246042370796204,-0.12647366523742676,0.2834048867225647,-0.0539170503616333,0.8052929953619924,-0.5647946814935819,-0.09887744479344775,-0.15077614201977924
1710516103652484600,1.306484619140625,-0.6051102876663208,0.15304280817508698,-0.755062460899353,-0.33590206503868103,0.8791705965995789,-0.3379777669906616,-0.11105841398239136,0.21502196788787842,-0.052433550357818604,0.8031608167508731,-0.5665774475200518,-0.10000554473613771,-0.15466640465001863
1710516103662503700,1.316503662109375,-0.6441786289215088,0.15256796777248383,-0.7362120747566223,-0.34196150302886963,0.8787457942962646,-0.33296868205070496,-0.05864274501800537,0.14408135414123535,-0.03591242432594299,0.80087055100038,-0.5686018818119443,-0.10103244329499456,-0.15840054809178727
1710516103672523800,1.326523681640625,-0.5373011827468872,0.1434497833251953,-0.689093291759491,-0.34776240587234497,0.878263533115387,-0.3281988203525543,-0.03622502088546753,0.13571351766586304,-0.027269810438156128,0.7986595669671368,-0.5705239575504195,-0.1019950819658843,-0.16199468316722615
1710516103682542600,1.33654248046875,-0.4578889310359955,0.11056214570999146,-0.5939627885818481,-0.35301199555397034,0.8776108622550964,-0.32431739568710327,-0.05567947030067444,0.15116727352142334,0.0016703605651855469,0.7967883962059071,-0.5720557324657269,-0.10292495881605446,-0.1651877199289233
1710516103692562700,1.346562744140625,-0.36174505949020386,0.06601773947477341,-0.4999057948589325,-0.3575071394443512,0.877012312412262,-0.32099542021751404,-0.06813681125640869,0.12783998250961304,0.02538701891899109,0.7951913739085269,-0.5733514450822491,-0.10378059684402448,-0.16783446147666461
1710516103702581800,1.356581787109375,-0.2609068751335144,0.024000778794288635,-0.4154124855995178,-0.3614021837711334,0.8763413429260254,-0.31845617294311523,-0.08700785040855408,0.11261129379272461,0.019368737936019897,0.7939433001687572,-0.5742964648755496,-0.10466847836182452,-0.1699475052381725
1710516103712601600,1.3666015625,-0.18969608843326569,0.004995556082576513,-0.33710092306137085,-0.3646455407142639,0.8757074475288391,-0.31649675965309143,-0.11318349838256836,0.09943604469299316,0.018141746520996094,0.7929728541271391,-0.5749964960407379,-0.10550186941090695,-0.1715882665512022
1710516103722620700,1.37662060546875,-0.14153282344341278,0.022156700491905212,-0.2614916265010834,-0.36721333861351013,0.8751347064971924,-0.3151092529296875,-0.10892197489738464,0.1302364468574524,0.013794004917144775,0.7922506437062485,-0.575477894553232,-0.10616295404124755,-0.1728980443604003
1710516103732640800,1.386640869140625,-0.12054471671581268,0.02084631845355034,-0.20324404537677765,-0.3691612482070923,0.8747023344039917,-0.3140319585800171,-0.10434955358505249,0.15729540586471558,0.005499303340911865,0.7916813244715268,-0.5758604407869872,-0.10662446483750704,-0.1739449618431193
1710516103742659000,1.3966591796875,-0.13559690117835999,0.015761811286211014,-0.17050474882125854,-0.37073126435279846,0.8744006752967834,-0.3130207359790802,-0.09464654326438904,0.1136975884437561,-0.00015056133270263672,0.791173163548453,-0.5762334887600791,-0.10697946348721664,-0.17480128657117922
1710516103752679200,1.40667919921875,-0.12722206115722656,0.013758155517280102,-0.14841488003730774,-0.37209510803222656,0.874224066734314,-0.31189388036727905,-0.06883814930915833,0.04791051149368286,-0.01447632908821106,0.7906508190274091,-0.5766683627047923,-0.10726906513301906,-0.1755518261884819
1710516103762698200,1.4166982421875,-0.1453201025724411,0.0014982940629124641,-0.12262295931577682,-0.3732220232486725,0.8741610646247864,-0.3107217848300934,-0.04071846604347229,0.01918017864227295,-0.02469685673713684,0.7901408850561278,-0.5771350349403349,-0.10749071175162639,-0.17617749899469326
1710516103772718000,1.426718017578125,-0.09366169571876526,-0.01665376126766205,-0.11948283016681671,-0.37431561946868896,0.8740902543067932,-0.3096032440662384,-0.025434166193008423,0.010049819946289062,-0.024564146995544434,0.7896687586914145,-0.5775683835916654,-0.10776429208551493,-0.17670586527108886
1710516103782737200,1.436737060546875,-0.007242922205477953,-0.040210749953985214,-0.09317612648010254,-0.37534070014953613,0.8738459348678589,-0.30905115604400635,-0.024439573287963867,0.0020390748977661133,-0.034424036741256714,0.78941244553522,-0.577736183490494,-0.10814489009550786,-0.17706945391407491
1710516103792757200,1.44675732421875,0.015602205879986286,-0.032822608947753906,-0.05864345282316208,-0.37609949707984924,0.873551070690155,-0.30896249413490295,-0.023436665534973145,-0.009705185890197754,-0.05482220649719238,0.7893423639471402,-0.577707119418038,-0.10850453069156885,-0.1772568093906624
1710516103802776000,1.456776123046875,0.0684899240732193,-0.058944221585989,-0.055783215910196304,-0.37673166394233704,0.8732143640518188,-0.3091442584991455,-0.02620720863342285,-0.017028391361236572,-0.04475277662277222,0.7893859981377799,-0.57755642612566,-0.10888728329050983,-0.1773190034242257
1710516103812796200,1.466796142578125,0.10122949630022049,-0.06509111821651459,-0.026537979021668434,-0.37729668617248535,0.8727878332138062,-0.30965912342071533,-0.033057987689971924,-0.009476006031036377,-0.031069576740264893,0.789562148041202,-0.5772493702337292,-0.10933252173331244,-0.17726051477680263
1710516103822815200,1.476815185546875,0.09986568987369537,-0.07313147187232971,0.007567793130874634,-0.37758469581604004,0.8724303245544434,-0.3103146255016327,-0.02382826805114746,0.015417635440826416,-0.037860333919525146,0.7898201147984873,-0.5768911022291325,-0.10972392947705956,-0.17703546442912366
1710516103832835000,1.4868349609375,0.07631935179233551,-0.07499296963214874,0.014310384169220924,-0.3777010142803192,0.8722216486930847,-0.3107592463493347,-0.019103825092315674,0.05879330635070801,-0.02041742205619812,0.7900321843215746,-0.5766346806655706,-0.11005827453781843,-0.1767166190259925
1710516103842854100,1.496854248046875,0.060694850981235504,-0.05622540041804314,0.021519295871257782,-0.37774574756622314,0.8720834851264954,-0.31109264492988586,-0.02324002981185913,0.08520722389221191,-0.022403359413146973,0.7902053908100795,-0.5764387154650762,-0.11032715590946054,-0.17641383023661714
1710516103852874200,1.506874267578125,0.019220642745494843,-0.022099819034337997,0.011427778750658035,-0.3777117431163788,0.8720109462738037,-0.3113374412059784,-0.02164134383201599,0.07350003719329834,-0.026202231645584106,0.7903285820714108,-0.5763056718431094,-0.11046745084743793,-0.17620908504577698
1710516103862893000,1.51689306640625,-0.04694186523556709,-0.010121718980371952,-0.03699967637658119,-0.3778671324253082,0.872008204460144,-0.3111562430858612,-0.01259005069732666,0.021073520183563232,-0.02194303274154663,0.7902679886079453,-0.5763684891365544,-0.11054973431315518,-0.17622346050431933
1710516103872913200,1.5269130859375,-0.032638028264045715,0.0035297521390020847,-0.08332802355289459,-0.3784336447715759,0.8718766570091248,-0.31083664298057556,0.00172463059425354,-0.022343456745147705,-0.024215757846832275,0.7901064278197143,-0.5764765627511691,-0.11070886395349422,-0.1764946597388656
1710516103882932200,1.53693212890625,0.010032204911112785,-0.018376078456640244,-0.13169848918914795,-0.3794395327568054,0.8714581727981567,-0.3107832968235016,0.014785021543502808,-0.04543888568878174,-0.03270718455314636,0.7899892050765434,-0.5764351660123042,-0.111044364494539,-0.1769425707684441
1710516103892952300,1.546952392578125,0.11159824579954147,-0.018770016729831696,-0.14194872975349426,-0.38077425956726074,0.8707206845283508,-0.3112178146839142,0.010046690702438354,-0.056175947189331055,-0.04019200801849365,0.7900194597548783,-0.5761388801851808,-0.11160233249113097,-0.17742095886106066
1710516103902971400,1.556971435546875,0.1690351665019989,-0.014867418445646763,-0.11726335436105728,-0.382011741399765,0.8696861863136292,-0.31259092688560486,0.010246604681015015,-0.020824432373046875,-0.03694203495979309,0.7903616008831056,-0.5754269690132802,-0.1121977602203887,-0.177831554057741
1710516103912991200,1.5669912109375,0.16234850883483887,0.008191135711967945,-0.0975911095738411,-0.38290300965309143,0.868785560131073,-0.3140016794204712,0.004286676645278931,0.028461873531341553,-0.028909027576446533,0.7907408192450768,-0.5747254105723686,-0.11264931655308723,-0.17812869714517665
1710516103923010000,1.577010009765625,0.09436706453561783,0.02106006257236004,-0.08203212916851044,-0.38358229398727417,0.8680698275566101,-0.31514972448349,-0.01316148042678833,0.04570269584655762,-0.012944668531417847,0.7910331998322977,-0.5741696341801645,-0.11293524363734658,-0.17844137682483724
1710516103933030100,1.587030029296875,0.08706306666135788,0.02226216159760952,-0.05190139263868332,-0.384046345949173,0.8675497174263,-0.3160155713558197,-0.030718088150024414,0.03625887632369995,0.005148380994796753,0.7912482431877665,-0.573759631162631,-0.11310217467973599,-0.17870073935757763
1710516103943049200,1.59704931640625,0.04178401082754135,0.03542989492416382,-0.021860137581825256,-0.38424214720726013,0.8672201037406921,-0.316681832075119,-0.04082193970680237,0.03269755840301514,0.0018626153469085693,0.7914186978304019,-0.5734617602203972,-0.1131401378995398,-0.17887829078731415
1710516103953069300,1.6070693359375,0.04571962729096413,0.04262138903141022,-0.003599639981985092,-0.3842114806175232,0.8669889569282532,-0.31735146045684814,-0.041691869497299194,0.0333406925201416,0.00247114896774292,0.7915965679439373,-0.5731876919098382,-0.11304928889160562,-0.17902740668505224
1710516103963088400,1.61708837890625,-0.02043995074927807,0.030428370460867882,0.007902286015450954,-0.3840407133102417,0.8669054508209229,-0.3177856504917145,-0.0441514253616333,0.03156256675720215,0.005590915679931641,0.79171159171454,-0.5730296185782322,-0.11289038094798383,-0.17912466452401204
1710516103973108000,1.62710791015625,-0.026733800768852234,-0.012910900637507439,0.0013431869447231293,-0.38397377729415894,0.8669381737709045,-0.3177773058414459,-0.03564295172691345,0.0029349327087402344,0.006452322006225586,0.7916960624864452,-0.5730501652044376,-0.11280450629633029,-0.17918153846656704
1710516103983127000,1.637126953125,-0.04013562202453613,-0.05668581277132034,0.0036311086732894182,-0.38404929637908936,0.8670017123222351,-0.31751248240470886,-0.017333149909973145,-0.024075627326965332,0.006691038608551025,0.7916329383442112,-0.5731458680695605,-0.11290515707069258,-0.17909090509556397
1710516103993147100,1.647147216796875,-0.08701871335506439,-0.06411182880401611,0.012471471913158894,-0.384113073348999,0.8672437071800232,-0.3167737126350403,-0.0025599300861358643,-0.05381286144256592,-0.004408478736877441,0.7914409976758042,-0.5734417755556868,-0.113038386747677,-0.178908008309181
1710516104003166200,1.657166259765625,-0.11505939811468124,-0.05991813912987709,0.02361280657351017,-0.38413816690444946,0.8676440119743347,-0.31564512848854065,0.007673323154449463,-0.02508413791656494,-0.0062694549560546875,0.7911313060772253,-0.5739130830745653,-0.113142460024018,-0.17870048775908565
1710516104013186300,1.667186279296875,-0.1599389910697937,-0.0372348316013813,0.028827542439103127,-0.3841377794742584,0.8681921362876892,-0.31413495540618896,0.003232598304748535,-0.0011876821517944336,-0.0017371773719787598,0.7906881062164773,-0.5745655349074157,-0.11316785962627562,-0.17854954041816765
1710516104023205400,1.677205322265625,-0.19373877346515656,-0.022013533860445023,0.03583112359046936,-0.3840731978416443,0.8688367009162903,-0.31242695450782776,0.004205644130706787,-0.026231110095977783,0.003985881805419922,0.790163960132368,-0.5753250262740583,-0.11308245669971377,-0.17847811214449363
1710516104033225000,1.687224853515625,-0.16664084792137146,-0.0061884429305791855,0.029795069247484207,-0.38397759199142456,0.8694978356361389,-0.31070032715797424,0.0032402873039245605,-0.042273104190826416,0.030289679765701294,0.7896245435646347,-0.576101465271015,-0.11294659047045558,-0.17844668315350884
1710516104043244000,1.697244140625,-0.09144062548875809,-0.0001127077266573906,0.03372962400317192,-0.38386276364326477,0.8699957728385925,-0.30944567918777466,0.00010418891906738281,-0.008026838302612305,0.02944698929786682,0.7892306229742378,-0.5766719576188178,-0.11281227338391998,-0.17843156739238336
1710516104053264100,1.70726416015625,0.0303404051810503,0.014312945306301117,0.026346273720264435,-0.38378340005874634,0.8701120615005493,-0.3092171847820282,-0.007482439279556274,0.032231688499450684,0.022016316652297974,0.7891635769074576,-0.576780386942112,-0.11276434616532935,-0.1784079026892465
1710516104063283200,1.717283203125,0.07729672640562057,0.019222214818000793,0.020251097157597542,-0.38367709517478943,0.8699458837509155,-0.3098161518573761,-0.010655760765075684,0.022678017616271973,0.01539793610572815,0.7893580973165492,-0.5765250037662281,-0.11274237722763952,-0.17838678702335456
1710516104073303300,1.72730322265625,0.09211641550064087,0.020187238231301308,-0.008161901496350765,-0.3837165832519531,0.8695617318153381,-0.3108442723751068,-0.010967284440994263,0.0014100074768066406,0.012794435024261475,0.7896735619624504,-0.5760692148221617,-0.11279238226789629,-0.1784319050444994
1710516104083322000,1.737322021484375,0.029031462967395782,0.028042498975992203,-0.010280446149408817,-0.3837398290634155,0.8692642450332642,-0.31164637207984924,-0.01019635796546936,-0.00399935245513916,-0.011214256286621094,0.7899059548619399,-0.5757228641153458,-0.1127829557016321,-0.17852683320117882
1710516104093342000,1.747342041015625,-0.0006196405738592148,0.03858967870473862,-0.014308210462331772,-0.3837147057056427,0.8691904544830322,-0.3118833005428314,-0.0037975311279296875,-0.014560878276824951,-0.033117830753326416,0.7899496103665511,-0.5756404758895822,-0.11267829965844119,-0.1786656337341656
1710516104103361000,1.757361083984375,-0.0492154061794281,0.02364455536007881,0.004009543918073177,-0.38371390104293823,0.869187593460083,-0.3118922710418701,-0.008803218603134155,-0.030472934246063232,-0.026578128337860107,0.7899188663984934,-0.5756577488850413,-0.11257007749593413,-0.17881408910301744
1710516104113381000,1.767381103515625,-0.07210847735404968,0.025405168533325195,0.017489666119217873,-0.3837112486362457,0.8694279193878174,-0.31122490763664246,-0.015245109796524048,-0.04687225818634033,-0.02610108256340027,0.7896857390841838,-0.5759688645158111,-0.11246070210824623,-0.17891074146917205
1710516104123400200,1.777400146484375,-0.041962817311286926,0.011738093569874763,0.04315215349197388,-0.3834661543369293,0.8697969913482666,-0.3104951083660126,-0.016817718744277954,-0.008468806743621826,-0.02425217628479004,0.7894624560311876,-0.5763202716049902,-0.11228265491313409,-0.17887646278171013
1710516104133420300,1.787420166015625,0.005402565002441406,0.0005100471898913383,0.059569742530584335,-0.38297784328460693,0.8701667785644531,-0.3100612461566925,-0.025332093238830566,0.02814871072769165,0.001894831657409668,0.7893746530889426,-0.576544971835102,-0.112094955205331,-0.17865737566483844
1710516104143439000,1.797439208984375,0.03483901917934418,-0.014308580197393894,0.05737636238336563,-0.3825121521949768,0.8703678250312805,-0.31007152795791626,-0.02656075358390808,0.03638571500778198,0.011792778968811035,0.7894390573577102,-0.5765619287956181,-0.1119847131618366,-0.17838669057470175
1710516104153459200,1.807459228515625,0.04165457934141159,-0.02667214348912239,0.04098327457904816,-0.38224998116493225,0.8704327344894409,-0.31021302938461304,-0.0237254798412323,0.03334552049636841,0.021028488874435425,0.7895416627901752,-0.5764965275422511,-0.11200554946658185,-0.1781310658602305
1710516104163478000,1.81747802734375,0.08424624800682068,-0.03245972841978073,0.03701835870742798,-0.3820900321006775,0.8703179955482483,-0.310731440782547,-0.02013164758682251,0.020368099212646484,0.030244410037994385,0.7897585792543295,-0.5762534553788152,-0.11209925078055416,-0.177896835604869
1710516104173498000,1.827498046875,0.10120952129364014,-0.04587779939174652,0.030333027243614197,-0.3819500803947449,0.870027482509613,-0.3117152750492096,-0.012993186712265015,0.004041790962219238,0.026025056838989258,0.7901279507227811,-0.5757972826269052,-0.1122490496065307,-0.1776387779591195
1710516104183517200,1.83751708984375,0.11633707582950592,-0.05701513960957527,0.021938210353255272,-0.3820332884788513,0.8696398735046387,-0.3126930892467499,-0.010254889726638794,-0.03173404932022095,0.01897677779197693,0.7904913063068125,-0.5753170395362884,-0.11253337185446174,-0.17739782470801232
1710516104193537300,1.847537353515625,0.10006701946258545,-0.06162527948617935,0.027070121839642525,-0.3822161853313446,0.8692002296447754,-0.31369051337242126,-0.007508575916290283,-0.05181741714477539,0.0019535720348358154,0.7908598518899275,-0.5748151959589557,-0.11288147458710064,-0.1771606964612202
1710516104203556000,1.85755615234375,0.06659827381372452,-0.059667594730854034,0.0244439784437418,-0.38228023052215576,0.8689544200897217,-0.3142929971218109,-0.0038892030715942383,-0.04960322380065918,-0.004813969135284424,0.7911144560483958,-0.5744973622464616,-0.11316485083840629,-0.17687421747310828
1710516104213576200,1.867576171875,0.04616863653063774,-0.05362115055322647,0.02258962020277977,-0.38232457637786865,0.8688822984695435,-0.31443852186203003,-0.0038143396377563477,-0.03512674570083618,-0.0012505054473876953,0.7912211131728404,-0.5743878033381592,-0.11339924914147102,-0.17660264881822263
1710516104223595300,1.87759521484375,0.10307532548904419,-0.03682033345103264,0.026064245030283928,-0.3823448121547699,0.8687665462493896,-0.314733624458313,-0.0033363401889801025,-0.019416511058807373,0.01814863085746765,0.79137255052016,-0.574216095343671,-0.11361804452010303,-0.17634164132613742
1710516104233615000,1.887614990234375,0.08451815694570541,-0.039752259850502014,0.01567285694181919,-0.3823312222957611,0.8686078190803528,-0.3151877224445343,-0.004128098487854004,-0.007951021194458008,0.023851782083511353,0.7915741375471815,-0.5739777122516166,-0.11382319877069111,-0.17608020621670817
1710516104243634200,1.89763427734375,0.0724409893155098,-0.023045454174280167,-0.021505670621991158,-0.382561057806015,0.8684097528457642,-0.31545448303222656,-0.00618705153465271,-0.01754915714263916,0.014535993337631226,0.7916864559580743,-0.5738103237776548,-0.11408095245351597,-0.17595392866422063
1710516104253654300,1.907654296875,0.08548860996961594,-0.021815499290823936,-0.03576290234923363,-0.3829653561115265,0.8680852055549622,-0.31585708260536194,-0.006622046232223511,-0.024182558059692383,0.011001825332641602,0.7918106102926737,-0.5735793682229183,-0.11435984381217172,-0.17596752886348116
1710516104263673000,1.917673095703125,0.09656336903572083,-0.01821889914572239,-0.04918390139937401,-0.38353055715560913,0.8676073551177979,-0.3164834678173065,-0.007765829563140869,-0.03908562660217285,0.01869305968284607,0.791988561055965,-0.5732378233797297,-0.11470248156271087,-0.17605647643367414
1710516104273693200,1.927693115234375,0.056598108261823654,-0.009760646149516106,-0.06249092146754265,-0.3842080533504486,0.8670520186424255,-0.31718286871910095,-0.01191014051437378,-0.04477113485336304,0.016416996717453003,0.7921664463828001,-0.5728634077743204,-0.1150481970232304,-0.17624917665745746
1710516104283712300,1.937712158203125,-0.011510638520121574,0.014482108876109123,-0.07290227711200714,-0.38490980863571167,0.8666346073150635,-0.317472904920578,-0.025521159172058105,-0.0353357195854187,0.011305391788482666,0.7921886730437578,-0.5726857281772564,-0.11530219939395736,-0.17656071632432188
1710516104293732000,1.947732177734375,-0.04212420806288719,0.04096772521734238,-0.06950834393501282,-0.38552945852279663,0.8663867712020874,-0.3173975646495819,-0.04070955514907837,-0.03917717933654785,0.012481212615966797,0.792071628462025,-0.5726978152161634,-0.11540552834528875,-0.17697865710586327
1710516104303751200,1.957751220703125,-0.08849117159843445,0.034028060734272,-0.07009663432836533,-0.38606780767440796,0.8663341403007507,-0.3168860077857971,-0.05376681685447693,-0.07275503873825073,0.02350538969039917,0.7918139009511366,-0.5729175581103608,-0.11542296629040756,-0.17740842567608547
1710516104313771300,1.967771240234375,-0.09322281181812286,0.04141604155302048,-0.0872734934091568,-0.3866457939147949,0.8663471937179565,-0.3161448538303375,-0.06362578272819519,-0.09774672985076904,0.035947829484939575,0.7914752329054647,-0.5732399575077315,-0.11542759705352697,-0.17787457152826977
1710516104323790000,1.9777900390625,-0.09430671483278275,0.0526103712618351,-0.10603786259889603,-0.38737207651138306,0.8662548661231995,-0.3155081570148468,-0.07145971059799194,-0.08462333679199219,0.027284979820251465,0.7911427666150002,-0.573512864965398,-0.11545093547229567,-0.17845784544324328
1710516104333810200,1.98781005859375,-0.1483185589313507,0.06964708864688873,-0.13265056908130646,-0.3882371187210083,0.8661611676216125,-0.3147011995315552,-0.08811178803443909,-0.08138638734817505,0.014316767454147339,0.7907252453479205,-0.5738630323883328,-0.11545829049551168,-0.17917651142751756
1710516104343829200,1.997829345703125,-0.16318432986736298,0.09766807407140732,-0.1750536859035492,-0.3893699645996094,0.8660451769828796,-0.3136189579963684,-0.10002517700195312,-0.09056293964385986,0.010640561580657959,0.7901641206812736,-0.5743359891601303,-0.11544992573488863,-0.18013950039720728
1710516104353849000,2.00784912109375,-0.16659823060035706,0.11050216853618622,-0.19124357402324677,-0.3906780481338501,0.8658126592636108,-0.3126324415206909,-0.10605654120445251,-0.09934842586517334,0.012583702802658081,0.7895919655039423,-0.5747679270873369,-0.11543660337395661,-0.18127527731168644
1710516104363868200,2.0178681640625,-0.18645529448986053,0.12341929972171783,-0.22597146034240723,-0.3921971917152405,0.8655337691307068,-0.3115007281303406,-0.11898750066757202,-0.1308230757713318,0.01467159390449524,0.7889380170580724,-0.5752577500365753,-0.11544766570044279,-0.1825573766740848
1710516104373888300,2.02788818359375,-0.1564640998840332,0.13792617619037628,-0.2506760060787201,-0.39395132660865784,0.865077793598175,-0.3105522394180298,-0.12785351276397705,-0.15414029359817505,0.016820639371871948,0.7882993222963183,-0.5756595293776039,-0.11549885560617638,-0.1840115224282538
1710516104383907000,2.037906982421875,-0.1714766025543213,0.17096641659736633,-0.2936527729034424,-0.3959675133228302,0.8644318580627441,-0.30978572368621826,-0.1370982527732849,-0.17590957880020142,0.027803391218185425,0.7876701456397023,-0.5759731599713778,-0.11559439678145292,-0.18565709968364857
1710516104393927200,2.04792724609375,-0.199031263589859,0.1870861053466797,-0.34470608830451965,-0.39830178022384644,0.8637071847915649,-0.30881306529045105,-0.14275959134101868,-0.19944638013839722,0.0380459725856781,0.7869044336718537,-0.5763773914759314,-0.11568303387920158,-0.18758438886548007
1710516104403946200,2.0579462890625,-0.13805925846099854,0.238523468375206,-0.3872048258781433,-0.4009632170200348,0.8626967668533325,-0.30819281935691833,-0.1378704309463501,-0.18523705005645752,0.030833929777145386,0.7861814046855006,-0.5766196139787887,-0.11581628315322569,-0.1897767559842348
1710516104413966000,2.067966064453125,-0.20677787065505981,0.2873469293117523,-0.4106267988681793,-0.40366417169570923,0.8615642786026001,-0.30783483386039734,-0.15373939275741577,-0.1929546594619751,0.02011522650718689,0.785469476489186,-0.5767790228385384,-0.11579523833562137,-0.19223733020371916
1710516104423985200,2.077985107421875,-0.2716631293296814,0.3486025631427765,-0.4594324231147766,-0.4065852165222168,0.8604668974876404,-0.30705904960632324,-0.1854863166809082,-0.2059258222579956,0.020804226398468018,0.7845308334850882,-0.5771456779236628,-0.11564317484153974,-0.19504083452671314
1710516104434005200,2.088005126953125,-0.3497651219367981,0.4283222556114197,-0.4593280255794525,-0.40934160351753235,0.8595463037490845,-0.3059734106063843,-0.20856308937072754,-0.1787906289100647,-0.008876383304595947,0.7834040301435421,-0.5777181268003971,-0.11513063709534928,-0.19815371422320538
1710516104444024000,2.098024169921875,-0.4335114061832428,0.4768753945827484,-0.4864504635334015,-0.41201427578926086,0.8588113784790039,-0.30444610118865967,-0.2226293385028839,-0.1846780776977539,-0.006680548191070557,0.7820516722033464,-0.5785383425710843,-0.11432558595842934,-0.20154000248466059
1710516104454044200,2.108044189453125,-0.502265989780426,0.5238533020019531,-0.5050097703933716,-0.4147600531578064,0.85816890001297,-0.3025234043598175,-0.2375074326992035,-0.21768110990524292,0.005114436149597168,0.7804812812756239,-0.579565150715251,-0.11332491147303786,-0.20520912399162575
1710516104464063200,2.118063232421875,-0.6098781824111938,0.5722200274467468,-0.5178989171981812,-0.4175054132938385,0.8577307462692261,-0.29997920989990234,-0.23818010091781616,-0.22784775495529175,0.0045233070850372314,0.7786314391639223,-0.580898773886543,-0.1121026623607182,-0.20910019419042786
1710516104474083000,2.1280830078125,-0.6355342864990234,0.6441176533699036,-0.5319707989692688,-0.42020413279533386,0.8573735952377319,-0.2972191572189331,-0.24279028177261353,-0.19202929735183716,0.02993100881576538,0.7766057097349015,-0.5823742802247671,-0.11059212341362779,-0.21329168312989694
1710516104484102100,2.13810205078125,-0.7104921340942383,0.6787592768669128,-0.5118343830108643,-0.42274010181427,0.857210636138916,-0.29407650232315063,-0.26607221364974976,-0.15939563512802124,0.04607546329498291,0.7743916029342116,-0.5840542698046585,-0.10882263639218377,-0.2176145628164201
1710516104494122200,2.148122314453125,-0.7922559976577759,0.762622058391571,-0.4745216369628906,-0.42482423782348633,0.8573102355003357,-0.29076385498046875,-0.28985169529914856,-0.19185912609100342,0.031761229038238525,0.7720645819789766,-0.5858727859400312,-0.1066356036035976,-0.22203206639345027
1710516104504141000,2.15814111328125,-0.8468811511993408,0.8811346292495728,-0.4695114195346832,-0.4265385568141937,0.8576681017875671,-0.2871766686439514,-0.28235432505607605,-0.2222920060157776,0.0763917863368988,0.7695415656902247,-0.5878825343212465,-0.10395089577419624,-0.22670302226388153
1710516104514161200,2.1681611328125,-0.8942438364028931,1.027304768562317,-0.3988332450389862,-0.42758241295814514,0.8582772612571716,-0.28378430008888245,-0.30660951137542725,-0.14978110790252686,0.04560995101928711,0.7669620102149458,-0.5899084553242726,-0.10057763475431918,-0.23164946172340284
1710516104524180200,2.17818017578125,-1.0186947584152222,1.201992154121399,-0.37431618571281433,-0.42768195271492004,0.859361469745636,-0.28033187985420227,-0.35564324259757996,-0.061601459980010986,-0.02348574995994568,0.7642410629952175,-0.592080124046927,-0.09630779563622965,-0.23685747789528008
1710516104534200000,2.188199951171875,-1.1258337497711182,1.3602745532989502,-0.36802661418914795,-0.42735207080841064,0.8607217073440552,-0.2766379714012146,-0.37719810009002686,-0.0860176682472229,-0.08351516723632812,0.7612184866175165,-0.5944380672083651,-0.09123813902874897,-0.2426222127126823
1710516104544219100,2.19821923828125,-1.138948678970337,1.4997326135635376,-0.30025261640548706,-0.42633023858070374,0.8624028563499451,-0.2729544937610626,-0.39437898993492126,-0.12279397249221802,-0.14606702327728271,0.7580508485793728,-0.5968478535137067,-0.08541310435711628,-0.24866915244390933
1710516104554239200,2.2082392578125,-1.1374059915542603,1.6649651527404785,-0.24829886853694916,-0.424399197101593,0.8643590807914734,-0.26975730061531067,-0.40345126390457153,-0.15917396545410156,-0.17389193177223206,0.7549154131026868,-0.5990935381468765,-0.07879266815263092,-0.25491478729266115
1710516104564258000,2.218258056640625,-1.0578935146331787,1.8386099338531494,-0.14416980743408203,-0.42142170667648315,0.866461455821991,-0.2676725387573242,-0.384944349527359,-0.10358285903930664,-0.1274232566356659,0.7520128749598165,-0.6008933262739303,-0.07135078436717636,-0.26136777018489155
1710516104574278100,2.228278076171875,-0.9963023066520691,2.045985221862793,0.00922880694270134,-0.4168204963207245,0.8689020872116089,-0.26696422696113586,-0.4099007248878479,0.08245295286178589,-0.14737284183502197,0.7495090853731078,-0.6021287682927032,-0.06291922953190585,-0.26780270470871387
1710516104584297200,2.238297119140625,-1.0156468152999878,2.2541821002960205,0.16737157106399536,-0.4103114604949951,0.871999204158783,-0.26694968342781067,-0.44181573390960693,0.21685290336608887,-0.20697298645973206,0.7471653086637352,-0.60307029479691,-0.05321069287785097,-0.2742608070490258
1710516104594317300,2.2483173828125,-0.9992570877075195,2.4408178329467773,0.3716714382171631,-0.4016650319099426,0.8757433295249939,-0.2678409218788147,-0.44271060824394226,0.3021283745765686,-0.24050548672676086,0.74510831198594,-0.6035687973051647,-0.04224029749611728,-0.28059588264721297
1710516104604336400,2.25833642578125,-1.0001028776168823,2.66715669631958,0.517372727394104,-0.3908984959125519,0.8802270293235779,-0.2690702974796295,-0.450791597366333,0.3752814531326294,-0.2685730457305908,0.7431427917813911,-0.6037943359234925,-0.02995422621388331,-0.2868343925524852
1710516104614356200,2.268356201171875,-1.0452418327331543,2.846637487411499,0.6769429445266724,-0.3781059980392456,0.8852759003639221,-0.27078115940093994,-0.442816823720932,0.4282464385032654,-0.3344128429889679,0.7412771430837252,-0.6036066490037987,-0.016383874871315228,-0.29308491598023595
1710516104624375000,2.278375,-1.0426713228225708,2.9939143657684326,0.7654914259910583,-0.363750159740448,0.8908364176750183,-0.272206574678421,-0.4035228490829468,0.4372122883796692,-0.3768107295036316,0.7392750869319618,-0.6032358351745171,-0.0018009459656435952,-0.2992920345830658
1710516104634395100,2.28839501953125,-0.8751268982887268,3.1278584003448486,0.8785426616668701,-0.34803804755210876,0.8963682651519775,-0.27457889914512634,-0.37806668877601624,0.39588338136672974,-0.3752623200416565,0.7375378720303003,-0.602104312564432,0.0134516039835267,-0.30549540027858174
1710516104644414200,2.298414306640625,-0.7871240377426147,3.1923513412475586,0.9596558809280396,-0.3310084640979767,0.9018104076385498,-0.27779772877693176,-0.3668065071105957,0.35436946153640747,-0.3874090909957886,0.736101106395844,-0.6002078735140778,0.029182981770032864,-0.3115351512542645
1710516104654434300,2.308434326171875,-0.49134647846221924,3.279446840286255,1.078940749168396,-0.3127717673778534,0.9069059491157532,-0.28230375051498413,-0.356478750705719,0.3306276202201843,-0.3734273612499237,0.7351364897271652,-0.5973352805690704,0.0451518160990338,-0.31737390344275335
1710516104664453400,2.318453369140625,-0.28613099455833435,3.3224949836730957,1.1996804475784302,-0.2929525673389435,0.9114812612533569,-0.2887575626373291,-0.3279123604297638,0.35382336378097534,-0.3349148631095886,0.7349195274240982,-0.593178379643896,0.06132397899104635,-0.3229120980160785
1710516104674473200,2.32847314453125,-0.10836687684059143,3.4224400520324707,1.2680134773254395,-0.27178624272346497,0.9155623912811279,-0.2964422106742859,-0.3229556083679199,0.40330058336257935,-0.27945494651794434,0.7351714548599897,-0.5879995088566379,0.0776883136661897,-0.3282440680759375
1710516104684492000,2.338491943359375,-0.08008011430501938,3.664172410964966,1.3218718767166138,-0.24918101727962494,0.9191146492958069,-0.30518388748168945,-0.31728631258010864,0.4750351905822754,-0.2807382643222809,0.7356356367241069,-0.5817675826506209,0.0946284044419036,-0.33381463496724323
1710516104694512000,2.34851220703125,-0.15035001933574677,3.8988444805145264,1.2750333547592163,-0.22550693154335022,0.9226029515266418,-0.3129703104496002,-0.29898345470428467,0.42032307386398315,-0.35611221194267273,0.7354847161508361,-0.57519600294553,0.11253623580665606,-0.3399226503497207
1710516104704531200,2.35853125,-0.07706115394830704,4.1281867027282715,1.275346279144287,-0.20098930597305298,0.9257254004478455,-0.32036805152893066,-0.2955469489097595,0.32523584365844727,-0.3919426202774048,0.7348601425135407,-0.5679865033796049,0.13117661361118416,-0.34664752356108597
1710516104714551300,2.36855126953125,-0.030329599976539612,4.317361831665039,1.2729072570800781,-0.17542459070682526,0.9282926917076111,-0.32787057757377625,-0.2587337791919708,0.29041165113449097,-0.4312998950481415,0.7339729035344419,-0.5598571289014183,0.1504151213333665,-0.3538633457707213
1710516104724570400,2.3785703125,0.11884923279285431,4.439260959625244,1.2905521392822266,-0.14896850287914276,0.930270791053772,-0.3352680802345276,-0.22679446637630463,0.252956748008728,-0.43980202078819275,0.7328235780176917,-0.5508708525626185,0.17002135584459685,-0.36139126288289636
1710516104734590000,2.38858984375,0.4316111207008362,4.527069568634033,1.380055546760559,-0.12129426747560501,0.9311277270317078,-0.34393155574798584,-0.20892119407653809,0.24105244874954224,-0.398377925157547,0.7319791099042509,-0.5404482344093081,0.18960464370296504,-0.3690154966527899
1710516104744609500,2.398609619140625,0.6381685733795166,4.574740409851074,1.4516661167144775,-0.0921778529882431,0.9307488203048706,-0.35385018587112427,-0.2100987732410431,0.25070875883102417,-0.35156354308128357,0.7315287656726734,-0.5285512081405599,0.20906583074452925,-0.37655120743886855
1710516104754629600,2.408629638671875,0.8352504968643188,4.648563861846924,1.5253667831420898,-0.06173612177371979,0.9292551875114441,-0.36424365639686584,-0.2436990737915039,0.2932484745979309,-0.2962481677532196,0.7312303331928259,-0.5154531382814581,0.22844306113048232,-0.3839583905437852
1710516104764648400,2.4186484375,1.0065702199935913,4.740052223205566,1.5753183364868164,-0.02990690991282463,0.9265353083610535,-0.37501731514930725,-0.26794469356536865,0.3429044485092163,-0.260907918214798,0.7310066527438452,-0.5010895825574768,0.24779139143923037,-0.39132845102743413
1710516104774668500,2.42866845703125,1.0987581014633179,4.844423294067383,1.6057991981506348,0.003071797778829932,0.9227299690246582,-0.3854348957538605,-0.2655535042285919,0.3192134499549866,-0.22954005002975464,0.7305793640653486,-0.4856977668866973,0.2671708017557278,-0.3987120977747865
1710516104784687600,2.4386875,1.1466134786605835,4.967363357543945,1.649157166481018,0.03727332875132561,0.9180037975311279,-0.3948162794113159,-0.2768668532371521,0.32541972398757935,-0.2181749939918518,0.7297461216172024,-0.46943431986237205,0.286746006701464,-0.40605280363460017
1710516104794707500,2.44870751953125,1.2822271585464478,5.072800636291504,1.7260515689849854,0.0727606937289238,0.9122876524925232,-0.4030352234840393,-0.2616645395755768,0.33142584562301636,-0.22765624523162842,0.7285078973477033,-0.45226133167035043,0.30649972198111985,-0.4132723859083422
1710516104804726500,2.4587265625,1.5055476427078247,5.208666801452637,1.8335802555084229,0.10993236303329468,0.9049127697944641,-0.41115429997444153,-0.26427504420280457,0.31470704078674316,-0.23258346319198608,0.7271938413249696,-0.43356521531983594,0.3262576609731162,-0.4204358936288055
1710516104814746600,2.46874658203125,1.644903540611267,5.315885066986084,1.9379849433898926,0.14883305132389069,0.8959252238273621,-0.41852933168411255,-0.27796822786331177,0.3460487127304077,-0.23328030109405518,0.7256708693904814,-0.41348195236275703,0.3460751592116054,-0.42739503404480617
1710516104824765400,2.478765380859375,1.8286232948303223,5.3690714836120605,2.053441286087036,0.18923251330852509,0.8852003216743469,-0.4249841272830963,-0.3196341395378113,0.39720940589904785,-0.1937292218208313,0.7239458892762363,-0.3920757972284739,0.3657656435229182,-0.4340443244927439
1710516104834785500,2.48878564453125,2.0384559631347656,5.391635894775391,2.1470658779144287,0.23080313205718994,0.8724730610847473,-0.4307212233543396,-0.35905328392982483,0.42322707176208496,-0.15376663208007812,0.7221240184005097,-0.36932581621546745,0.3850166646261007,-0.4403380615554214
1710516104844804600,2.4988046875,2.130099058151245,5.409390926361084,2.232429265975952,0.2732435464859009,0.8579009771347046,-0.43513670563697815,-0.4008375406265259,0.4432770609855652,-0.11312681436538696,0.7200547328358511,-0.345483323230127,0.4038228737710731,-0.4461946237896143
1710516104854824400,2.508824462890625,2.2858808040618896,5.414326190948486,2.310631275177002,0.3162781596183777,0.8415272831916809,-0.4379498362541199,-0.4262787699699402,0.45589709281921387,-0.06301146745681763,0.7176393425511508,-0.320645853522209,0.42215083037555035,-0.45162901271860495
1710516104864843500,2.518843505859375,2.399428606033325,5.3883562088012695,2.402695417404175,0.3596591651439667,0.8232570290565491,-0.4391961097717285,-0.44326210021972656,0.4165654182434082,-0.007886320352554321,0.7149522676171232,-0.2948769018592459,0.43982900930912927,-0.45655379347282676
1710516104874863600,2.528863525390625,2.5789406299591064,5.38300085067749,2.4993863105773926,0.40333887934684753,0.8029444217681885,-0.43886005878448486,-0.45906397700309753,0.4226110577583313,0.02855128049850464,0.7119848032266434,-0.2680946656614567,0.45683171931278654,-0.4609856751244882
1710516104884882400,2.53888232421875,2.6660044193267822,5.3151469230651855,2.5966579914093018,0.4470537006855011,0.7805616855621338,-0.4368828535079956,-0.4732988178730011,0.478929340839386,0.05291074514389038,0.7087731507296305,-0.24040218781794948,0.47303843329206363,-0.4648464178148137
1710516104894902500,2.548902587890625,2.7586958408355713,5.217946529388428,2.685919761657715,0.49034789204597473,0.7563391327857971,-0.4330242872238159,-0.5192327499389648,0.4916161894798279,0.1103772521018982,0.7053305828594332,-0.21213032839661092,0.48835292487888005,-0.46799673116588325
1710516104904921600,2.558921630859375,2.8557660579681396,5.1038031578063965,2.7752878665924072,0.5329582095146179,0.7302025556564331,-0.42750415205955505,-0.5484154224395752,0.5602942705154419,0.14413323998451233,0.7017190733169902,-0.18329611743673235,0.5026434741079876,-0.4704704413103001
1710516104914941400,2.56894140625,2.9221839904785156,4.987261772155762,2.850585699081421,0.5745868682861328,0.702319324016571,-0.4202350676059723,-0.5890979766845703,0.5968597531318665,0.18264049291610718,0.6979264666586587,-0.15407372529563337,0.5158912278650479,-0.4722459529624269
1710516104924960500,2.57896044921875,3.009422779083252,4.843560695648193,2.9206228256225586,0.6149659156799316,0.6727543473243713,-0.4113619923591614,-0.6091217994689941,0.6145381927490234,0.19953948259353638,0.6939770872863844,-0.12454006611529922,0.5280234643983458,-0.4733676567138121
1710516104934980600,2.588980712890625,3.1260921955108643,4.681276798248291,2.978426456451416,0.6537677049636841,0.6415325403213501,-0.40127789974212646,-0.6172381639480591,0.6139148473739624,0.20634686946868896,0.6899283244573954,-0.09473623926224993,0.5388748464876223,-0.473959886118972
1710516104944999400,2.59899951171875,3.1885323524475098,4.5403571128845215,3.038001775741577,0.6908981204032898,0.6087048649787903,-0.39004895091056824,-0.6212264895439148,0.606215238571167,0.21850967407226562,0.6857891239261412,-0.06469339714079997,0.5484435135953205,-0.4740440970334923
1710516104955019500,2.60901953125,3.190732479095459,4.402991771697998,3.080050230026245,0.7262352705001831,0.5747144222259521,-0.3772079646587372,-0.6103447675704956,0.6420061588287354,0.22474217414855957,0.6814554386862751,-0.03467466068624279,0.5569503462727613,-0.47352153836318234
1710516104965038600,2.61903857421875,3.2036337852478027,4.244994163513184,3.1101372241973877,0.7595744132995605,0.5397984981536865,-0.3628561496734619,-0.6081461310386658,0.6385005116462708,0.2503988742828369,0.6769647774458004,-0.0048526999405656066,0.5644009036180685,-0.4723843421114395
1710516104975058400,2.629058349609375,3.2663488388061523,4.1036481857299805,3.1237213611602783,0.7907097935676575,0.5040888786315918,-0.34737950563430786,-0.58296138048172,0.628571093082428,0.25358372926712036,0.6722997421531726,0.024795908633391296,0.5706973067645071,-0.4708533293570604
1710516104985077500,2.639077392578125,3.3446061611175537,4.008064270019531,3.144239902496338,0.8197394013404846,0.4675678014755249,-0.3307681679725647,-0.5525733232498169,0.6461559534072876,0.24139752984046936,0.6673795253726755,0.05443229647198869,0.575893250941195,-0.4690294654611934
1710516104995097600,2.64909765625,3.310014486312866,3.910203456878662,3.1743061542510986,0.8467075824737549,0.43047377467155457,-0.31269571185112,-0.5270969867706299,0.6498790383338928,0.23470807075500488,0.6621469960563423,0.08395890878171844,0.580175016632312,-0.4668074730102653
1710516105005116400,2.659116455078125,3.2859244346618652,3.759247064590454,3.262594223022461,0.871632993221283,0.39276301860809326,-0.29324600100517273,-0.512746274471283,0.6334973573684692,0.24338027834892273,0.6568565641615821,0.11314421501428491,0.5835883762254743,-0.46385610174746406
1710516105015136500,2.669136474609375,3.1972789764404297,3.588609457015991,3.318495035171509,0.8943797945976257,0.35440388321876526,-0.2729150652885437,-0.4910290241241455,0.6470762491226196,0.2452051341533661,0.6516246818019802,0.14196735151348433,0.5859929473162383,-0.46026386347475595
1710516105025155600,2.679155517578125,3.1756014823913574,3.4116005897521973,3.3803420066833496,0.9148193001747131,0.31571727991104126,-0.2518496513366699,-0.4544616937637329,0.6253380179405212,0.2212558090686798,0.6465282804434344,0.17017013082412796,0.5874668538844615,-0.4559890333022248
1710516105035175700,2.68917578125,3.183473825454712,3.239797353744507,3.469933271408081,0.9330191016197205,0.27629467844963074,-0.23051448166370392,-0.39908337593078613,0.6753503084182739,0.2202911078929901,0.6415989446512421,0.19807604240550844,0.5877998332282979,-0.4512296506414713
1710516105045194800,2.69919482421875,3.1703178882598877,3.076112985610962,3.521322727203369,0.9489458799362183,0.236355721950531,-0.20889638364315033,-0.36586177349090576,0.6965361833572388,0.1932714730501175,0.6367855075401165,0.22562783925289479,0.5870637823703424,-0.4460408014113842
1710516105055214600,2.709214599609375,3.2047641277313232,2.9157679080963135,3.614961624145508,0.9626108407974243,0.195876806974411,-0.18711748719215393,-0.345148503780365,0.6490939855575562,0.18157856166362762,0.6320870214895343,0.2528831652431689,0.58522761239146,-0.44048258022727754
1710516105065233400,2.7192333984375,3.1707866191864014,2.7889537811279297,3.6591708660125732,0.9740415811538696,0.1549047827720642,-0.16506846249103546,-0.30274641513824463,0.6797204613685608,0.17359812557697296,0.6274669245123624,0.27986017665214324,0.5823607563928054,-0.4345337326030669
1710516105075253500,2.72925341796875,3.1689460277557373,2.672011613845825,3.6831254959106445,0.9831942319869995,0.11404671519994736,-0.14255769550800323,-0.27921468019485474,0.6592687368392944,0.16692596673965454,0.6228168501192733,0.30633007506320087,0.5786907974326959,-0.4282267706444332
1710516105085272600,2.7392724609375,3.223670244216919,2.5804340839385986,3.704495906829834,0.9901095628738403,0.07329931110143661,-0.11962615698575974,-0.27645593881607056,0.6210824251174927,0.18876373767852783,0.6179833340010573,0.3325431347138673,0.5741097315627383,-0.4217935286256908
1710516105095292700,2.749292724609375,3.1753690242767334,2.5155718326568604,3.6938588619232178,0.9948296546936035,0.03304465115070343,-0.09603208303451538,-0.28241199254989624,0.6381437182426453,0.19515323638916016,0.6129157585736312,0.3583389109385261,0.568838451509396,-0.4151510697738786
1710516105105311700,2.759311767578125,3.0495223999023438,2.4610726833343506,3.7070107460021973,0.9974122047424316,-0.006481568329036236,-0.07160276174545288,-0.29419565200805664,0.5915340781211853,0.19812864065170288,0.6077016301506007,0.38346967992404474,0.5631603882237775,-0.4080442626812219
1710516105115331600,2.76933154296875,3.038661479949951,2.4161386489868164,3.703742027282715,0.9978933930397034,-0.04529633745551109,-0.04644576460123062,-0.2768850326538086,0.5325705409049988,0.1955851912498474,0.6023324590598655,0.40801207372110504,0.5570487106615788,-0.4005228663358576
1710516105125350400,2.779350341796875,3.0575337409973145,2.375375986099243,3.7350192070007324,0.9962968230247498,-0.08348874747753143,-0.020551448687911034,-0.23816388845443726,0.4705126881599426,0.18398839235305786,0.5966606398609645,0.43225107634574306,0.5503483281932744,-0.3927745722974857
1710516105135370500,2.78937060546875,2.949617862701416,2.3605382442474365,3.743760824203491,0.9926337599754333,-0.12100289016962051,0.006083707790821791,-0.20482224225997925,0.4447943866252899,0.17667078971862793,0.5907688598811726,0.4560691143517422,0.5431784391415676,-0.3846433679605149
1710516105145389600,2.7993896484375,2.8485381603240967,2.36478590965271,3.696638822555542,0.9869798421859741,-0.15730680525302887,0.033551376312971115,-0.18279576301574707,0.4489022493362427,0.18399322032928467,0.5846884796490806,0.4791396192460129,0.5359112916304856,-0.3759838881572365
1710516105155409700,2.80940966796875,2.227656126022339,2.350628614425659,3.6456642150878906,0.9794360399246216,-0.1922270506620407,0.061269521713256836,-0.1677599549293518,0.3853422701358795,0.19039368629455566,0.5788824140659367,0.5008440040523234,0.5289518353228942,-0.36641570984497024
1710516105165428700,2.8194287109375,2.0126733779907227,2.205442428588867,3.5314900875091553,0.9701578617095947,-0.22589410841464996,0.08812353014945984,-0.15034884214401245,0.40343010425567627,0.12639987468719482,0.5740596620903868,0.5204501383448384,0.5226790766591669,-0.3555190619464387
1710516105175448600,2.829448486328125,1.7601072788238525,2.024714469909668,3.2866744995117188,0.9598457217216492,-0.2568323016166687,0.1128431186079979,-0.0047217607498168945,0.5230218768119812,-0.19192945957183838,0.569513432349756,0.538467711691529,0.5162112764461628,-0.34530132780098904
1710516105185467400,2.83946728515625,1.60825777053833,2.2504045963287354,3.026660442352295,0.9486024975776672,-0.2848949134349823,0.13779819011688232,-0.04584670066833496,0.3875255584716797,0.14967750012874603,0.5648449653229647,0.5549245539835065,0.5108403217005973,-0.33474037238600257
1710516105195487500,2.849487548828125,1.6259465217590332,2.41616153717041,2.870396375656128,0.9362702965736389,-0.310320109128952,0.1646193116903305,-0.23547983169555664,0.269060343503952,0.6173632144927979,0.5592205516518223,0.5708413106115342,0.5064087782411968,-0.32397964523925254
1710516105205507600,2.859507568359375,1.5525559186935425,2.6479673385620117,2.6415045261383057,0.9228460192680359,-0.3331497013568878,0.19330434501171112,-0.1802617907524109,0.18272855877876282,0.48125624656677246,0.5526107928351932,0.586284465252993,0.5029142074603234,-0.3130002644693675
1710516105215526700,2.869526611328125,1.2831768989562988,2.8900246620178223,2.4773788452148438,0.9082807898521423,-0.3535507619380951,0.2236689180135727,-0.1573500633239746,0.1972397267818451,0.3369085490703583,0.5452969025852797,0.6009138405438271,0.5007364694725394,-0.3013582635022366
1710516105225545700,2.879545654296875,0.8399072885513306,3.0361998081207275,2.3756868839263916,0.8923442959785461,-0.37288299202919006,0.25432276725769043,-0.13094592094421387,0.17177212238311768,0.25515294075012207,0.5381997281087513,0.614267830824862,0.4998363895161761,-0.28840895529948046
1710516105235565300,2.8895654296875,0.44834136962890625,3.147596597671509,2.1556148529052734,0.8753077387809753,-0.3912909924983978,0.2841270864009857,-0.10740894079208374,0.052500009536743164,0.14020457863807678,0.5316808299692768,0.6260289652762132,0.5001512534837089,-0.2743212349951054
1710516105245584400,2.89958447265625,0.0953042283654213,3.305854320526123,1.9116652011871338,0.8575384616851807,-0.4081343412399292,0.3131360113620758,-0.08048468828201294,-0.09035500884056091,0.13620492815971375,0.5254824633787154,0.6361266056486004,0.5019073050931956,-0.259422809262551
1710516105255604500,2.9096044921875,-0.145512655377388,3.477733850479126,1.6870323419570923,0.8389084339141846,-0.4235163629055023,0.3418579399585724,-0.1137954592704773,-0.05504506826400757,0.3284149169921875,0.5192806796674687,0.6448693878636591,0.5050469758001468,-0.24375957578540072
1710516105265624600,2.91962451171875,-0.41262900829315186,3.680128574371338,1.4539023637771606,0.8193884491920471,-0.43752217292785645,0.37037456035614014,-0.1389988660812378,0.08478465676307678,0.4502890408039093,0.5129374066876391,0.6523646908763719,0.5095170205226792,-0.22739409831710064
1710516105275643600,2.9296435546875,-0.7352632880210876,3.906097173690796,1.2165247201919556,0.798844575881958,-0.4505747854709625,0.3985341787338257,-0.13672000169754028,0.0214671790599823,0.46335846185684204,0.506566732461508,0.6584702682979766,0.5154454284606685,-0.21005470513993565
1710516105285662700,2.939662841796875,-0.852325975894928,4.072338104248047,0.9954982995986938,0.7772878408432007,-0.46267038583755493,0.42633330821990967,-0.12677502632141113,-0.06716057658195496,0.5145999193191528,0.4999980909794213,0.6633040715965773,0.5226799810810314,-0.19192543321411407
1710516105295682300,2.949682373046875,-0.8357867002487183,4.1820969581604,0.7788400053977966,0.7549231052398682,-0.47314366698265076,0.45412176847457886,-0.1504613161087036,-0.06230252981185913,0.601923942565918,0.4926962798441068,0.6673375659875843,0.5307743876825431,-0.17375160920428848
1710516105305702400,2.959702392578125,-1.055759310722351,4.271566867828369,0.5477108955383301,0.7319021224975586,-0.48253172636032104,0.4811263978481293,-0.20022481679916382,-0.029003947973251343,0.6910690069198608,0.48505527731153947,0.670324069868368,0.5396562259871817,-0.15542926043455094
1710516105315721500,2.969721435546875,-1.2413475513458252,4.282182216644287,0.25139668583869934,0.7088042497634888,-0.49104952812194824,0.5064260363578796,-0.2610807418823242,0.04129663109779358,0.7787455916404724,0.4775224991507472,0.6717703118594939,0.5494885548523939,-0.13696495647022403
1710516105325741600,2.979741455078125,-1.530066967010498,4.230229377746582,-0.024478822946548462,0.6861252784729004,-0.49902021884918213,0.5293495059013367,-0.25915390253067017,0.09388411045074463,0.8386314511299133,0.4704034338544752,0.6715325198290645,0.5601060993052351,-0.11851520988397905
1710516105335760600,2.9897607421875,-1.9347848892211914,4.118797779083252,-0.2784740924835205,0.6643280982971191,-0.5073220729827881,0.5489013195037842,-0.22904056310653687,0.10578703880310059,0.8556703329086304,0.4642835284121063,0.6693468089968692,0.5713366014565988,-0.09995099931830176
1710516105345780700,2.99978076171875,-2.3892369270324707,3.998504161834717,-0.5339924097061157,0.6437873244285583,-0.516677975654602,0.5644307136535645,-0.18594729900360107,0.12936413288116455,0.8566356897354126,0.4595750953844019,0.6650066690371758,0.5830793133959614,-0.08108932336219483
1710516105355799600,3.009799560546875,-2.9104628562927246,3.885448455810547,-0.7407317161560059,0.6246340274810791,-0.527779757976532,0.5755699872970581,-0.1555635929107666,0.10305142402648926,0.8555670380592346,0.4565217889465075,0.6584417515720844,0.5951801945487916,-0.06166724594783838
1710516105365819400,3.0198193359375,-3.4055309295654297,3.8159098625183105,-0.9133477210998535,0.606744647026062,-0.5409609079360962,0.5824282765388489,-0.13771992921829224,0.10790115594863892,0.8677366375923157,0.4550481026903962,0.6497239710090296,0.6075137042585141,-0.04143971226002089
1710516105375838500,3.02983837890625,-3.7716875076293945,3.7976810932159424,-1.1382018327713013,0.5901168584823608,-0.5558897256851196,0.5854474306106567,-0.10670316219329834,0.1391569972038269,0.877397358417511,0.4548182232708019,0.6389406938658683,0.6200633168800418,-0.020412427060045833
1710516105385858600,3.039858642578125,-3.9706287384033203,3.736417293548584,-1.2880877256393433,0.5748165845870972,-0.5715653300285339,0.5855757594108582,-0.07600677013397217,0.10289162397384644,0.8841202855110168,0.4552045891179039,0.6264980394271229,0.6326832498845038,0.0009449858900290171
1710516105395877600,3.049877685546875,-4.252945899963379,3.6630115509033203,-1.497041940689087,0.5612340569496155,-0.5877330899238586,0.5827401876449585,-0.03511101007461548,0.08677184581756592,0.8831564784049988,0.456210287841613,0.6124585402411861,0.6451857379285185,0.022406974208441496
1710516105405897700,3.059897705078125,-4.41495418548584,3.5868079662323,-1.7635024785995483,0.5499090552330017,-0.6038858294487,0.5769943594932556,0.007265806198120117,0.1171150803565979,0.8756883144378662,0.4578027682720249,0.5966041092056364,0.65769347665556,0.0438135856315464
1710516105415916500,3.06991650390625,-4.724232196807861,3.5284461975097656,-2.030306339263916,0.5411709547042847,-0.6196329593658447,0.5684970021247864,0.0015230774879455566,0.157368004322052,0.9373470544815063,0.45991275022842676,0.5788443671606847,0.6702146560387461,0.06505165150030656
1710516105425936400,3.079936279296875,-5.035891056060791,3.4969301223754883,-2.374927282333374,0.5351388454437256,-0.6353917717933655,0.5566897988319397,-0.004789173603057861,0.18342649936676025,1.00907564163208,0.462769994022157,0.5587489002629089,0.6827478073711176,0.08659663054639342
1710516105435955500,3.08995556640625,-5.259170055389404,3.323115825653076,-2.7287442684173584,0.5328102707862854,-0.6499313712120056,0.5419432520866394,0.008144378662109375,0.18786472082138062,1.0983459949493408,0.4662899371278867,0.5363219663173391,0.6952196662959799,0.10771292575622703
1710516105445975600,3.0999755859375,-5.52189302444458,3.1280629634857178,-3.134655237197876,0.5347961783409119,-0.663180410861969,0.523626983165741,-0.011785805225372314,0.14709758758544922,1.1467833518981934,0.4708706841660533,0.5114563990360008,0.7072664514317486,0.1283255949423088
1710516105455994600,3.10999462890625,-5.7631940841674805,2.8859617710113525,-3.5829403400421143,0.5418193340301514,-0.6740638613700867,0.5020659565925598,-0.09731543064117432,0.1999121904373169,1.19187331199646,0.476503469202966,0.4839805034265964,0.7188851450948291,0.1480258046761138
1710516105466014700,3.1200146484375,-5.943835258483887,2.5594894886016846,-4.064326286315918,0.5544170141220093,-0.6818458437919617,0.47718796133995056,-0.2439616322517395,0.15409010648727417,1.3111727237701416,0.4834070658981241,0.4538841098176334,0.7297829765254699,0.16650448370792917
1710516105476033500,3.130033447265625,-6.0429182052612305,2.2009503841400146,-4.629583358764648,0.5731129050254822,-0.6851615905761719,0.4495507776737213,-0.39719414710998535,0.03828030824661255,1.4211465120315552,0.49159026087292107,0.4211500848978129,0.7398702590631483,0.18320444652426116
1710516105486053400,3.140053466796875,-6.1210856437683105,1.7683467864990234,-5.211437225341797,0.5981624126434326,-0.6827709078788757,0.41955435276031494,-0.5035731196403503,-0.07612496614456177,1.5240949392318726,0.5011475592718827,0.38578847641652697,0.7489622372612612,0.19767153273646043
1710516105496072400,3.150072509765625,-6.23557710647583,1.2951120138168335,-5.841996192932129,0.6294984817504883,-0.6737685799598694,0.38699859380722046,-0.6151246428489685,-0.1574540138244629,1.6171671152114868,0.5123484212179444,0.34773095342692373,0.7566918010503446,0.2097615860372105
1710516105506092500,3.160092529296875,-6.457651138305664,0.7921522259712219,-6.508575439453125,0.6668139696121216,-0.6571884751319885,0.3513725996017456,-0.7588854432106018,-0.14519494771957397,1.7103798389434814,0.5254383631367453,0.30660636899479804,0.7626787198196436,0.21960950239300922
1710516105516111600,3.170111572265625,-6.41722297668457,0.24190567433834076,-7.1736273765563965,0.7093054056167603,-0.6314703226089478,0.31325873732566833,-0.891922652721405,-0.13972407579421997,1.8009076118469238,0.5402986384986769,0.2625397160204403,0.7666174229450695,0.2268214805890287
1710516105526131700,3.180131591796875,-6.1723527908325195,-0.4904170036315918,-7.6968278884887695,0.7554134130477905,-0.5953876972198486,0.2736133635044098,-1.020519495010376,-0.003062009811401367,1.8588634729385376,0.5568396962055777,0.2167229748813431,0.7680090061430463,0.23048414271339035
1710516105536150500,3.190150634765625,-5.846619606018066,-1.3330321311950684,-8.098291397094727,0.803065836429596,-0.5488936305046082,0.231951043009758,-1.1314349174499512,0.24467915296554565,1.821225881576538,0.5753141843170069,0.17035382355003506,0.7661299488312466,0.23030016843838721
1710516105546170400,3.20017041015625,-5.577972888946533,-2.1526038646698,-8.385123252868652,0.8497732281684875,-0.4926281273365021,0.18762464821338654,-1.2850301265716553,0.560209333896637,1.6996740102767944,0.5956390891733705,0.12404166951103346,0.7605432202378173,0.22671951841803742
1710516105556189400,3.210189453125,-5.279860496520996,-2.959434747695923,-8.545235633850098,0.8930806517601013,-0.42749080061912537,0.14020803570747375,-1.4722434282302856,0.8679206371307373,1.5961506366729736,0.6175681518699384,0.0782899393149805,0.7509824935409538,0.22023952686538423
1710516105566209500,3.22020947265625,-4.919164180755615,-3.7415623664855957,-8.495580673217773,0.9304146766662598,-0.3553995192050934,0.08955325186252594,-1.5866189002990723,1.120856761932373,1.4160315990447998,0.6407190727876924,0.0340427018290321,0.7373043613537553,0.21142958740089018
1710516105576228600,3.230228515625,-4.761997222900391,-4.389688014984131,-8.327577590942383,0.9597299098968506,-0.2786591649055481,0.0356052964925766,-1.646207571029663,1.3919861316680908,1.1102230548858643,0.6646054437189337,-0.00822951097717681,0.7195379928790331,0.20123880205180092
1710516105586248700,3.240248779296875,-4.958385944366455,-4.8228678703308105,-8.0917329788208,0.9797436594963074,-0.1991463154554367,-0.021046794950962067,-1.6378247737884521,1.5404244661331177,0.7750903964042664,0.6884318710150641,-0.049261834882579215,0.6978895859255223,0.19127176314682637
1710516105596267500,3.250267578125,-5.000611305236816,-4.9108171463012695,-7.844553470611572,0.9899967908859253,-0.11808904260396957,-0.07721173763275146,-1.5929629802703857,1.59481942653656,0.48974841833114624,0.7108662190744774,-0.08971754069484025,0.6733089153896449,0.1824150665933682
1710516105606287400,3.260287353515625,-4.212055206298828,-4.711938381195068,-7.837117671966553,0.9910639524459839,-0.03550649434328079,-0.12857545912265778,-1.5933434963226318,1.6502525806427002,0.22836804389953613,0.731246985418864,-0.12798977206229753,0.6475576321501754,0.17194667511649894
1710516105616306400,3.270306396484375,-3.9184348583221436,-3.999671220779419,-7.457534313201904,0.9840654730796814,0.04640727862715721,-0.17164398729801178,-1.5924333333969116,1.6556038856506348,-0.050447627902030945,0.7485429220645864,-0.1637848614776507,0.6223765157267842,0.1597045466811479
1710516105626326500,3.280326416015625,-2.7706446647644043,-3.5222926139831543,-7.673608779907227,0.9704824090003967,0.12649965286254883,-0.20533306896686554,-1.5082021951675415,1.5997576713562012,-0.3206067383289337,0.7626824460736294,-0.19667171653301457,0.5988770320933711,0.14485150304677952
1710516105636345600,3.290345703125,-2.4384098052978516,-3.511261463165283,-7.9592976570129395,0.9497253894805908,0.2073194831609726,-0.23460713028907776,-1.3920471668243408,1.3172624111175537,-0.3370022773742676,0.7755126724019437,-0.22717638869603954,0.575401878594843,0.1260309152043245
1710516105646365700,3.30036572265625,-1.7148178815841675,-3.662167549133301,-8.560408592224121,0.9202651977539062,0.2897129952907562,-0.2630179822444916,-1.1801071166992188,0.8175868391990662,-0.36314159631729126,0.7878400056358092,-0.25649701352713683,0.5501820459646399,0.10400578237742175
1710516105656384500,3.310384521484375,-0.8964473605155945,-3.8656716346740723,-9.146454811096191,0.8803424835205078,0.37379664182662964,-0.29201602935791016,-0.9373340010643005,0.39729106426239014,-0.43927663564682007,0.7999908396787909,-0.2843263262954398,0.5226380442935653,0.07760656401082675
1710516105666404600,3.320404541015625,1.636820673942566,-3.947192668914795,-9.432867050170898,0.8295159339904785,0.4527284502983093,-0.32701733708381653,-0.9561485648155212,-0.40888988971710205,-0.1848844289779663,0.8133164588073184,-0.3056026132365414,0.4930500691334558,0.045000329642788474
1710516105676423400,3.33042333984375,5.355784893035889,-4.15584135055542,-9.3153076171875,0.769404411315918,0.5161918997764587,-0.3762483596801758,-1.228388786315918,-1.317552924156189,0.22086817026138306,0.8295216873192044,-0.31350270054517565,0.4621600196871817,0.004243852789818724
1710516105686443500,3.340443603515625,9.197243690490723,-4.5719685554504395,-8.322380065917969,0.703575849533081,0.551521897315979,-0.4481123685836792,-1.5790488719940186,-1.1505818367004395,0.510551393032074,0.849854262949597,-0.3030356759781388,0.4290841366269775,-0.042473690724739686
1710516105696462600,3.350462646484375,12.712651252746582,-4.6028218269348145,-6.626748561859131,0.6391879320144653,0.5476510524749756,-0.5399232506752014,-1.8415043354034424,0.09692603349685669,1.0537173748016357,0.8727599189282024,-0.2726789348779852,0.3945688474707929,-0.09083907727959677
1710516105706482700,3.360482666015625,15.455639839172363,-4.506496429443359,-4.559992790222168,0.5830041170120239,0.4980238378047943,-0.6419333219528198,-2.019665002822876,0.8876572847366333,1.7733573913574219,0.8957116385117597,-0.22317044534135988,0.3594833615661172,-0.13662818544616115
1710516105716501500,3.37050146484375,17.094728469848633,-5.540377616882324,-2.1652143001556396,0.5329548716545105,0.4033105969429016,-0.7438412308692932,-2.1180684566497803,1.4078466892242432,2.7049007415771484,0.9172288090476007,-0.1586615645215987,0.3207895031715273,-0.1749631503614441
1710516105726521600,3.380521484375,17.060453414916992,-6.790545463562012,0.008891916833817959,0.4802069365978241,0.2723976671695709,-0.8337870836257935,-1.7470526695251465,1.197405219078064,4.083451271057129,0.9361058119142409,-0.08628830113943943,0.27506506343428316,-0.2014936055722333
1710516105736540700,3.390540771484375,14.675214767456055,-7.321055889129639,1.8505078554153442,0.4201311767101288,0.1292227804660797,-0.8982155919075012,-1.0112719535827637,0.3305855989456177,4.929725170135498,0.9501008517855585,-0.016994826443071837,0.22495193360161728,-0.21544419295171047
1710516105746560500,3.400560546875,11.217183113098145,-7.264277458190918,3.4504201412200928,0.3545367121696472,-0.0007577972137369215,-0.9350417852401733,-1.212996244430542,0.03978981077671051,4.589964389801025,0.9595889742257974,0.03997396501845625,0.1757304470039807,-0.21612462793932213
1710516105756579300,3.410579345703125,7.540472507476807,-7.162221908569336,4.8479743003845215,0.2838793098926544,-0.10217397660017014,-0.9534007906913757,-1.948369026184082,0.07701226323843002,3.3066418170928955,0.9666845814642686,0.08042442267745373,0.12973636926872384,-0.2054787035061752
1710516105766599400,3.420599365234375,4.909938335418701,-6.974013328552246,5.780345916748047,0.20828762650489807,-0.17472228407859802,-0.9623348712921143,-2.2558188438415527,-0.09781491756439209,1.9210903644561768,0.9728537363204163,0.10639971145665206,0.08666986905725658,-0.1863417082687387
1710516105776618500,3.430618408203125,3.3675453662872314,-6.8758063316345215,6.295068740844727,0.12930229306221008,-0.22434085607528687,-0.9658944606781006,-2.207656145095825,0.29222723841667175,0.5448129177093506,0.9780969578258083,0.12227813960898049,0.04583476551488763,-0.1620919459319527
1710516105786638600,3.440638671875,1.9904378652572632,-6.961763858795166,6.550286769866943,0.04689831659197807,-0.2558882236480713,-0.9655681252479553,-2.2175679206848145,0.7581923604011536,-0.3097462058067322,0.9820907681311905,0.13107996344579567,0.005830232815051783,-0.13521013532577492
1710516105796657700,3.45065771484375,1.5506654977798462,-7.169669151306152,6.530009746551514,-0.03896843641996384,-0.27285200357437134,-0.9612664580345154,-2.1335017681121826,0.9924412965774536,-0.4291449189186096,0.9844097075777641,0.1348141280798576,-0.034524088195816,-0.10756757668007187
1710516105806677200,3.46067724609375,1.8083915710449219,-6.915716171264648,6.2276506423950195,-0.12453655898571014,-0.2827818691730499,-0.9510652422904968,-2.0177059173583984,1.1042234897613525,-0.2530668377876282,0.9844170828237138,0.13755005671032758,-0.07448065115150769,-0.0803470792123981
1710516105816696300,3.4706962890625,3.0513880252838135,-6.471078872680664,5.940923690795898,-0.20531506836414337,-0.2954694330692291,-0.9330292344093323,-1.939948558807373,1.0812054872512817,0.025283873081207275,0.9816301887438321,0.144308751011068,-0.11251830329097814,-0.054008032041804085
1710516105826716400,3.48071630859375,4.420982837677002,-5.953635215759277,5.870635509490967,-0.28073251247406006,-0.3151736855506897,-0.906562089920044,-1.923216462135315,1.20058012008667,0.18646931648254395,0.9759785106214106,0.15731415052098482,-0.14822688735878123,-0.02733385745514921
1710516105836735500,3.490735595703125,6.320145606994629,-5.350589275360107,5.745241165161133,-0.35024917125701904,-0.3443738520145416,-0.8710523247718811,-1.8993083238601685,1.1019423007965088,0.2860609292984009,0.967225857544614,0.17814216196742158,-0.18093975774366333,0.0006454105537071812
1710516105846755600,3.500755615234375,8.027534484863281,-4.661647796630859,5.828847408294678,-0.4139147698879242,-0.3836135268211365,-0.8255394101142883,-1.835627555847168,0.8557814955711365,0.39420390129089355,0.9548965065568814,0.20762004352926489,-0.21005766480716268,0.030700550856973503
1710516105856774700,3.510774658203125,8.624414443969727,-4.209555625915527,6.018555164337158,-0.47322678565979004,-0.4247379004955292,-0.7717863917350769,-1.8505799770355225,0.9321078658103943,0.3579375147819519,0.9390883362129814,0.24202689235362979,-0.23564760554129613,0.06329658141124335
1710516105866794200,3.520794189453125,7.5344438552856445,-3.999570369720459,6.100429058074951,-0.5305607914924622,-0.45432183146476746,-0.7156094908714294,-1.9581477642059326,0.8453588485717773,0.22668737173080444,0.9211571588670301,0.2737198749814616,-0.25936979424034823,0.0963030778878457
1710516105876813300,3.530813232421875,6.324408054351807,-3.5658416748046875,6.1197710037231445,-0.5850215554237366,-0.46844565868377686,-0.6620486974716187,-1.9409031867980957,-0.07946690917015076,-0.08984339237213135,0.9025546167152765,0.29948690461708116,-0.28157281093122655,0.12813898579890098
1710516105886833400,3.54083349609375,5.473980903625488,-3.094128370285034,6.0999250411987305,-0.6353182792663574,-0.4682910144329071,-0.6140637397766113,-1.923046588897705,-0.626878023147583,-0.26522397994995117,0.8841716926149178,0.31910007459204376,-0.3018994542419811,0.1589726157337042
1710516105896852500,3.5508525390625,5.144256114959717,-2.47986102104187,6.003262996673584,-0.6799619197845459,-0.45995134115219116,-0.5710487365722656,-1.9942781925201416,-0.5222722291946411,-0.3558006286621094,0.8658888629014571,0.3353500536507812,-0.31939941396351956,0.18910555989250205
1710516105906872600,3.56087255859375,4.362538814544678,-1.6054372787475586,6.0779337882995605,-0.7187529802322388,-0.44405847787857056,-0.5349825620651245,-1.9968843460083008,-0.43623635172843933,-0.3644925355911255,0.8481737024151558,0.3480571383327625,-0.33371386091641364,0.21930067903209924
1710516105916891600,3.5708916015625,4.252392768859863,-1.0694316625595093,6.02283239364624,-0.7520048022270203,-0.4221227765083313,-0.5062618851661682,-2.0077760219573975,-0.1830102503299713,-0.18598347902297974,0.8311641661670868,0.35754013681827973,-0.34501317827288575,0.24959382181045062
1710516105926911200,3.5809111328125,4.303979873657227,-0.6924066543579102,6.071626663208008,-0.7811198830604553,-0.3964805006980896,-0.4823431670665741,-2.099144458770752,-0.0229225754737854,0.0451330840587616,0.8139084086989413,0.3655461276099814,-0.35384240775550985,0.28057919999631853
1710516105936930300,3.590930419921875,4.745593070983887,-0.5514867901802063,5.781447410583496,-0.8068798780441284,-0.3705495297908783,-0.46004122495651245,-1.990620732307434,-0.034708619117736816,0.32582491636276245,0.7956156040604409,0.3740562991390347,-0.3606400946360539,0.31147467723964695
1710516105946950400,3.600950439453125,4.6310858726501465,-0.378805547952652,5.679290294647217,-0.8294623494148254,-0.34521374106407166,-0.43911248445510864,-1.6679284572601318,0.26095470786094666,0.5880230069160461,0.7764117799593585,0.3831761843187456,-0.36554038526200083,0.3416739674404355
1710516105956969500,3.610969482421875,4.450563907623291,-0.25478485226631165,5.349444389343262,-0.849173367023468,-0.3182206153869629,-0.4214740991592407,-1.5026791095733643,0.6545548439025879,0.6653705835342407,0.7571113539023828,0.39102552679894154,-0.36927224706439066,0.37083630560843667
1710516105966989600,3.620989501953125,3.6707406044006348,0.21221351623535156,5.698344707489014,-0.8659278750419617,-0.2881062924861908,-0.40885671973228455,-1.507439374923706,0.8255361318588257,0.6578343510627747,0.7384102594778309,0.3962231549863982,-0.37226181359940763,0.3989721519131196
1710516105977008400,3.63100830078125,2.771543502807617,0.6885377168655396,5.994982719421387,-0.8799245357513428,-0.24985873699188232,-0.4041082561016083,-1.6129343509674072,0.4853781461715698,0.5108587741851807,0.720770941274849,0.3960090299208527,-0.375663034305457,0.42725107522516464
1710516105987028500,3.641028564453125,1.8658112287521362,0.9446805119514465,6.084258556365967,-0.8903395533561707,-0.2055363655090332,-0.4062640070915222,-1.7245439291000366,0.2779545783996582,0.3899828791618347,0.7043955841079995,0.3909783052898347,-0.3794785350240681,0.4549274586576735
1710516105997047600,3.651047607421875,1.3519830703735352,0.8998852372169495,5.844022274017334,-0.8974384665489197,-0.15834850072860718,-0.41174012422561646,-1.6473307609558105,-0.03804735839366913,0.33952030539512634,0.6891278866176018,0.3828098182631498,-0.38416999240675415,0.4805962930688393
1710516106007067400,3.6610673828125,1.3932831287384033,0.7096463441848755,5.420187473297119,-0.9017325639724731,-0.11312282830476761,-0.4172309935092926,-1.3554848432540894,-0.237280011177063,0.3096717894077301,0.6742243236773292,0.3745064890278086,-0.38875364739036183,0.5040209185950948
1710516106017086500,3.67108642578125,1.4302382469177246,0.5266968607902527,5.016674995422363,-0.9039909243583679,-0.07199421525001526,-0.4214467704296112,-1.0810860395431519,-0.04165324568748474,0.2940358519554138,0.6593439716269465,0.367496992186929,-0.3927118248325275,0.5253465941554953
1710516106027106600,3.6811064453125,1.31148362159729,0.48451370000839233,4.713619232177734,-0.904463529586792,-0.033790528774261475,-0.4252106249332428,-0.9661114811897278,0.06343835592269897,0.24860543012619019,0.6447593752571016,0.361074980531131,-0.39625692131945406,0.5448768300827209
1710516106037125400,3.69112548828125,0.9293394088745117,0.5372938513755798,4.553699493408203,-0.9029807448387146,0.003329693805426359,-0.4296681582927704,-1.0192147493362427,-0.04098838195204735,0.2588155269622803,0.6309348750555952,0.35400235344584524,-0.39981027108936773,0.5628101471095299
1710516106047145500,3.7011455078125,0.5003257393836975,0.6492411494255066,4.395338535308838,-0.8994583487510681,0.04051724448800087,-0.43512433767318726,-1.1438461542129517,-0.10315456986427307,0.30991071462631226,0.6180409135824628,0.345624569017005,-0.403709653717251,0.5792993682179979
1710516106057164500,3.71116455078125,0.08842714130878448,0.7454379796981812,4.283580303192139,-0.8937961459159851,0.07827667891979218,-0.4415895938873291,-1.2343931198120117,-0.13178923726081848,0.2613984942436218,0.6062234069543191,0.3356029531375735,-0.40813705603455297,0.5943804902450222
1710516106067184400,3.721184326171875,-0.2522558569908142,0.7980449795722961,4.154026985168457,-0.8862326741218567,0.11631159484386444,-0.44840094447135925,-1.3088204860687256,-0.25237420201301575,0.15418094396591187,0.5952430192762812,0.3243285148447327,-0.41305029775494284,0.6081827886320573
1710516106077203500,3.731203369140625,-0.5704115033149719,0.7841925024986267,3.935878276824951,-0.8771268725395203,0.1540290266275406,-0.45488864183425903,-1.322534441947937,-0.3866034746170044,0.07825595140457153,0.5850756353881558,0.3122003399455512,-0.4184335422874888,0.6205891746820847
1710516106087223600,3.7412236328125,-0.7862138152122498,0.7145550847053528,3.6241092681884766,-0.8671684861183167,0.1902123987674713,-0.4602588415145874,-1.2640419006347656,-0.5497399568557739,0.0503162145614624,0.5758530616318398,0.2998765431341725,-0.4241988176725572,0.6312865914835
1710516106097243600,3.75124365234375,-0.8776726126670837,0.649080216884613,3.281137228012085,-0.8568492531776428,0.22394299507141113,-0.4643908441066742,-1.2025378942489624,-0.6836445331573486,0.06831848621368408,0.567539448438793,0.2879134947676292,-0.43001209847409766,0.6403860862379113
1710516106107262500,3.761262451171875,-0.9311667680740356,0.6122108697891235,2.9883198738098145,-0.8464120626449585,0.25482243299484253,-0.46760255098342896,-1.1827932596206665,-0.6812140345573425,0.09554749727249146,0.5600833513241777,0.2765642394683105,-0.43555819610000635,0.6481573482760993
1710516106117282300,3.7712822265625,-1.081263780593872,0.6277235746383667,2.7959043979644775,-0.8357197642326355,0.2838844656944275,-0.47008734941482544,-1.2304575443267822,-0.6507667899131775,0.10981211066246033,0.5533508303124074,0.26542292138829426,-0.44102946851690583,0.6548637776283002
1710516106127301400,3.78130126953125,-1.3331797122955322,0.7574623823165894,2.585294246673584,-0.8244455456733704,0.3119829297065735,-0.4721824526786804,-1.307405710220337,-0.6911942958831787,0.16152876615524292,0.5475901168030937,0.253835755113694,-0.446627573946728,0.6604818719305647
1710516106137321500,3.791321533203125,-1.6041123867034912,0.9285038709640503,2.3273227214813232,-0.8124172687530518,0.3391033113002777,-0.4743279218673706,-1.3726259469985962,-0.7615276575088501,0.22968381643295288,0.5431203305024472,0.24150576904315882,-0.4522289220916756,0.6649692919133143
1710516106147340500,3.801340576171875,-1.8640217781066895,1.0847523212432861,1.9630053043365479,-0.8000103831291199,0.3647921681404114,-0.47635096311569214,-1.3857349157333374,-0.8730318546295166,0.25395411252975464,0.5403060420978965,0.22848227290940515,-0.45784317784588735,0.668015714348355
1710516106157360600,3.811360595703125,-2.0169944763183594,1.1389402151107788,1.5316016674041748,-0.7880759239196777,0.3880171477794647,-0.47789040207862854,-1.2930092811584473,-1.0023512840270996,0.2975010275840759,0.539184741526406,0.21544278968750447,-0.46329170163191985,0.6694962100644917
1710516106167379500,3.82137939453125,-2.071497917175293,1.1520131826400757,1.072064757347107,-0.7773922681808472,0.40804851055145264,-0.47870418429374695,-1.1321688890457153,-1.1009958982467651,0.34860774874687195,0.5396367447457869,0.20302655622561877,-0.46843156344325226,0.6694357631576999
1710516106177399300,3.8313994140625,-2.089644432067871,1.186543583869934,0.6542205810546875,-0.7682132124900818,0.42461472749710083,-0.4791146516799927,-0.9995785355567932,-1.177239179611206,0.3840371370315552,0.5415757247210291,0.19148084127297021,-0.4730515473489573,0.6680217756420221
1710516106187418400,3.84141845703125,-2.1896371841430664,1.2903308868408203,0.2891795039176941,-0.7602461576461792,0.4385431706905365,-0.47927626967430115,-0.9657975435256958,-1.2943323850631714,0.44558489322662354,0.5449082082086038,0.1804104771323359,-0.4772985628040859,0.6653670613509883
1710516106197438500,3.8514384765625,-2.2737395763397217,1.4643657207489014,-0.08476585894823074,-0.7531828284263611,0.45003148913383484,-0.4797784984111786,-1.0001587867736816,-1.3819620609283447,0.4951745867729187,0.5498462471448408,0.16946371519121708,-0.48103305809923086,0.6614820369670377
1710516106207457500,3.86145751953125,-2.3118393421173096,1.624077320098877,-0.4365425407886505,-0.7469466924667358,0.45906686782836914,-0.4809659421443939,-1.0678268671035767,-1.3546204566955566,0.4999173879623413,0.5563270888812124,0.15866262874807116,-0.48409007573166796,0.6564930229258674
1710516106217477600,3.8714775390625,-2.4932315349578857,1.7515838146209717,-0.7932844161987305,-0.7416394352912903,0.4660511910915375,-0.48245975375175476,-1.122023344039917,-1.2750263214111328,0.5228650569915771,0.5642884600984788,0.14789899912522755,-0.48671963516210903,0.650237372446899
1710516106227496400,3.881496337890625,-2.8102643489837646,1.8987300395965576,-1.1229770183563232,-0.7373450994491577,0.4716813564300537,-0.4835689961910248,-1.1442772150039673,-1.2069108486175537,0.49856841564178467,0.5737387827357292,0.1368381089953983,-0.48937800208023385,0.642346020044512
1710516106237516300,3.891516357421875,-3.164740562438965,2.141326904296875,-1.3985753059387207,-0.7335903644561768,0.47687193751335144,-0.48418837785720825,-1.1870639324188232,-1.1894725561141968,0.47039443254470825,0.5846990148994855,0.1248258332157652,-0.49226448555808006,0.6326304520961913
1710516106247535400,3.901535400390625,-3.438467502593994,2.4598476886749268,-1.6035714149475098,-0.7296449542045593,0.48192858695983887,-0.4851423501968384,-1.2687528133392334,-1.1291606426239014,0.5131574869155884,0.5970614228688361,0.11152571538135851,-0.4949654944685327,0.6213604805323152
1710516106257555500,3.911555419921875,-3.642326831817627,2.8080477714538574,-1.7789490222930908,-0.7250462770462036,0.48676598072052,-0.4872031807899475,-1.3728083372116089,-0.9346877336502075,0.568852961063385,0.6106896973162268,0.09693262071857686,-0.49699343661761985,0.6088183972126185
1710516106267574500,3.921574462890625,-3.925135374069214,3.110917329788208,-1.9391893148422241,-0.7196508049964905,0.4918535351753235,-0.4900844395160675,-1.4456018209457397,-0.727800190448761,0.6498744487762451,0.6253677777839661,0.08090948589866755,-0.49840890645912034,0.5949431262681215
1710516106277594600,3.9315947265625,-4.214219093322754,3.3252596855163574,-2.1085822582244873,-0.713798463344574,0.4973470866680145,-0.49308982491493225,-1.4452743530273438,-0.5589315891265869,0.7963735461235046,0.6408540649994583,0.06358503936219123,-0.49941169019718007,0.5795264409499029
1710516106287613400,3.941613525390625,-4.407388210296631,3.4930248260498047,-2.277479887008667,-0.7079024910926819,0.5031194686889648,-0.49572667479515076,-1.3747239112854004,-0.40773671865463257,0.9201041460037231,0.6568553100495683,0.04527387250816937,-0.500086933675237,0.5624984461942097
1710516106297633500,3.951633544921875,-4.478094577789307,3.5986738204956055,-2.4443178176879883,-0.7022132873535156,0.508538007736206,-0.4982827603816986,-1.2671012878417969,-0.2887350916862488,1.016318678855896,0.6730981416547924,0.026564551370551245,-0.5001529275784721,0.5441326836517549
1710516106307652400,3.96165234375,-4.492810249328613,3.6713430881500244,-2.6302249431610107,-0.6969885230064392,0.5132524371147156,-0.5007785558700562,-1.1354546546936035,-0.1885758638381958,1.1129611730575562,0.6893857071729768,0.0078398404708571,-0.4995490702803339,0.524534842360247
1710516106317672400,3.97167236328125,-4.415996551513672,3.6743578910827637,-2.791236400604248,-0.6925468444824219,0.5167315006256104,-0.5033560991287231,-1.0074653625488281,-0.07233458757400513,1.1888115406036377,0.7055551128542461,-0.010402912347752048,-0.49821051494005825,0.5038551548986506
1710516106327691500,3.98169140625,-4.258450508117676,3.6982157230377197,-2.867075204849243,-0.6886117458343506,0.5190508961677551,-0.5063595771789551,-0.9092733263969421,0.09165161848068237,1.21439790725708,0.7213248665070288,-0.027950486256163497,-0.496023153524817,0.4825663319935384
1710516106337711600,3.991711669921875,-4.1197285652160645,3.708956718444824,-2.8885762691497803,-0.6847516894340515,0.52054762840271,-0.5100443959236145,-0.8279741406440735,0.26080918312072754,1.2120555639266968,0.7365533775059386,-0.04486478492583478,-0.49291475901310805,0.46098943884068905
1710516106347730400,4.00173046875,-3.8985776901245117,3.718832015991211,-2.910682439804077,-0.6808305978775024,0.5212764739990234,-0.5145294666290283,-0.7516340017318726,0.38222694396972656,1.1926605701446533,0.7511698356497111,-0.06104833516105393,-0.4888848083216542,0.43932758690268126
1710516106357750500,4.01175048828125,-3.6241090297698975,3.7753846645355225,-2.816718339920044,-0.6764430999755859,0.5212475657463074,-0.5203132629394531,-0.6856327652931213,0.4967883825302124,1.0964851379394531,0.7651784624418021,-0.07639677241453277,-0.48374261299169063,0.4179218408705215
1710516106367769600,4.02176953125,-3.2649354934692383,3.870948553085327,-2.602588415145874,-0.670546293258667,0.5210504531860352,-0.5280854105949402,-0.639909029006958,0.6756659150123596,0.9887329936027527,0.77846728310207,-0.09100097847504297,-0.4771541905953357,0.3975317272802658
1710516106377789400,4.03178955078125,-3.0696887969970703,3.9670920372009277,-2.387972831726074,-0.6626794338226318,0.5211783647537231,-0.5378001928329468,-0.5996496081352234,0.8388527631759644,0.816898763179779,0.7910727461072579,-0.10508803043113567,-0.46910168992684903,0.3782908966545976
1710516106387808500,4.04180859375,-2.9422547817230225,4.039267063140869,-2.1636030673980713,-0.6527506709098816,0.5224596261978149,-0.5485914349555969,-0.5374196171760559,0.8902449011802673,0.7567061185836792,0.8029414898189529,-0.11916099625646513,-0.45989664797887575,0.35997327821326514
1710516106397828400,4.051828369140625,-2.789405107498169,3.8425309658050537,-2.0669820308685303,-0.6417608261108398,0.5248275995254517,-0.5591950416564941,-0.37012577056884766,0.9282211661338806,0.9084687232971191,0.813860133820846,-0.13302073944751033,-0.45023101310199487,0.3423876110451848
1710516106407847400,4.061847412109375,-2.5459702014923096,3.615285873413086,-2.296773672103882,-0.6322877407073975,0.5257872939109802,-0.5689991116523743,-0.04378342628479004,0.983230710029602,1.014387845993042,0.8239335836190422,-0.14513228795539798,-0.4409501906203857,0.3250124129147505
1710516106417867500,4.071867431640625,-2.948089838027954,3.8490545749664307,-2.7295074462890625,-0.624144434928894,0.5256486535072327,-0.5780460834503174,0.39755141735076904,0.9646925926208496,0.9737827777862549,0.8339539989123452,-0.15682217747914542,-0.43172186606825375,0.3058493266262356
1710516106427886600,4.081886474609375,-3.5496644973754883,4.165604591369629,-2.96978497505188,-0.6159266829490662,0.5265406370162964,-0.5859944224357605,0.7215174436569214,0.8194982409477234,0.7856252193450928,0.8441509947178716,-0.17013130298319687,-0.42196933303776923,0.28356042544259574
